"Time (s)","Linear Acceleration x (m/s^2)","Linear Acceleration y (m/s^2)","Linear Acceleration z (m/s^2)"
9.401481700E-2,-8.252254687E-3,-8.977865577E-1,-2.671416283E0
1.043602760E-1,-1.901284903E-1,-2.355292797E0,-5.488158464E-1
1.143700420E-1,-1.129716113E-1,-2.278665543E0,-4.952331483E-1
1.245323950E-1,-4.623770714E-2,-2.174611092E0,-4.469035268E-1
1.442772690E-1,2.637040615E-2,-1.941052437E0,-3.016902208E-1
1.543480690E-1,5.844875798E-2,-1.811741471E0,-2.566160262E-1
1.644188700E-1,8.382657170E-2,-1.686396599E0,-2.435643077E-1
1.746422590E-1,9.973356128E-2,-1.572510600E0,-2.441744953E-1
1.946312720E-1,1.070997864E-1,-1.389212012E0,-2.574739456E-1
2.047020730E-1,1.014431193E-1,-1.316281676E0,-2.658361793E-1
2.147728740E-1,9.293363243E-2,-1.252744317E0,-2.747080624E-1
2.248436750E-1,8.003626764E-2,-1.187099934E0,-2.808706164E-1
2.349755110E-1,6.168992072E-2,-1.123697758E0,-2.751860619E-1
2.451683820E-1,2.977253310E-2,-1.076540709E0,-2.413995564E-1
2.553612530E-1,2.868350409E-2,-1.034015536E0,-2.089040726E-1
2.654930890E-1,2.645795606E-2,-9.919090271E-1,-1.776115149E-1
2.756554420E-1,2.124812454E-2,-9.537992477E-1,-1.746985763E-1
2.953392800E-1,2.540924586E-2,-8.971170783E-1,-2.207254469E-1
3.054100810E-1,2.803756669E-2,-8.701995611E-1,-2.365105450E-1
3.154808820E-1,2.878492326E-2,-8.461594582E-1,-2.299273163E-1
3.255516830E-1,3.118011169E-2,-8.114367723E-1,-2.132294327E-1
3.356224830E-1,3.330584988E-2,-7.600425482E-1,-1.942013353E-1
3.457238020E-1,3.052347526E-2,-7.080923915E-1,-1.676381677E-1
3.557640850E-1,1.611118950E-2,-6.497482061E-1,-1.304274648E-1
3.658348860E-1,-3.068350488E-3,-5.906366706E-1,-9.218590707E-2
3.759056860E-1,-2.215951122E-2,-5.338816047E-1,-5.965635553E-2
3.859764870E-1,-3.145044670E-2,-4.823329151E-1,-3.863975406E-2
3.960167700E-1,-2.120260894E-2,-4.328730404E-1,-4.079287499E-2
4.060265360E-1,9.562362917E-3,-3.852369189E-1,-7.681147754E-2
4.161583720E-1,4.432260618E-2,-3.353094161E-1,-1.291804910E-1
4.262596900E-1,8.504694700E-2,-2.819600701E-1,-1.599509716E-1
4.363304910E-1,1.239220724E-1,-2.279822528E-1,-1.467387974E-1
4.464012920E-1,1.414645761E-1,-1.820227057E-1,-1.070549041E-1
4.564720930E-1,1.395643502E-1,-1.507744342E-1,-6.522121280E-2
4.665428940E-1,1.220766455E-1,-1.302028000E-1,-3.778432682E-2
4.766136940E-1,9.485142678E-2,-1.162722707E-1,-3.058426455E-2
4.866844950E-1,6.470361352E-2,-1.156529337E-1,-3.293025121E-2
4.967552960E-1,4.029589891E-2,-1.262708604E-1,-4.483641684E-2
5.068260970E-1,2.931899577E-2,-1.382954866E-1,-7.798530161E-2
5.168968970E-1,3.657449782E-2,-1.486923993E-1,-1.285021305E-1
5.269676980E-1,5.716400594E-2,-1.534765363E-1,-1.759630144E-1
5.370384990E-1,7.357250154E-2,-1.593501270E-1,-1.989781111E-1
5.571801010E-1,9.196416289E-2,-1.778233051E-1,-1.785234809E-1
5.672509010E-1,8.333515376E-2,-1.901973933E-1,-1.506418437E-1
5.773217020E-1,6.198067591E-2,-2.022526860E-1,-1.236513779E-1
5.873925030E-1,3.482352942E-2,-2.129216343E-1,-1.053390503E-1
5.975548560E-1,1.844688877E-2,-2.201331258E-1,-1.073957458E-1
6.077477270E-1,1.575481333E-2,-2.179357558E-1,-1.269192845E-1
6.179100810E-1,1.213083044E-2,-2.120524943E-1,-1.541957259E-1
6.280724350E-1,2.018642426E-2,-1.975669414E-1,-1.785367727E-1
6.478173080E-1,4.688005894E-2,-1.455934346E-1,-2.155114114E-1
6.580406960E-1,5.483215675E-2,-1.168767363E-1,-2.164665908E-1
6.780602270E-1,6.227226183E-2,-6.381940097E-2,-1.677096635E-1
6.881310280E-1,6.679511070E-2,-4.237103090E-2,-1.578776538E-1
6.982323470E-1,7.156304270E-2,-2.107718401E-2,-1.577421427E-1
7.082726300E-1,7.557733357E-2,9.868808556E-4,-1.731315404E-1
7.183739480E-1,7.879672199E-2,2.180625126E-2,-1.904180050E-1
7.284447490E-1,8.115969598E-2,4.227438942E-2,-1.949994266E-1
7.387596900E-1,8.258613944E-2,6.133043021E-2,-1.917289943E-1
7.589012920E-1,8.703146875E-2,9.120162576E-2,-1.772091687E-1
7.690941630E-1,8.596950769E-2,9.922188520E-2,-1.689067781E-1
7.792870340E-1,8.563583344E-2,1.040642336E-1,-1.644708514E-1
7.989403540E-1,8.458941430E-2,1.059716865E-1,-1.757518649E-1
8.090111550E-1,8.207820356E-2,1.034713984E-1,-1.845663488E-1
8.190514380E-1,8.052846789E-2,1.018212214E-1,-2.009965628E-1
8.291527570E-1,7.892359793E-2,1.011125222E-1,-2.143558711E-1
8.392235580E-1,7.629299164E-2,9.955961257E-2,-2.198060155E-1
8.492943580E-1,7.164830714E-2,1.021284983E-1,-2.154191285E-1
8.593346420E-1,6.401205808E-2,1.050266922E-1,-1.973204464E-1
8.694054420E-1,5.530164391E-2,1.083123758E-1,-1.733036190E-1
8.794762430E-1,4.747845232E-2,1.130681485E-1,-1.570072621E-1
8.895775610E-1,3.960902244E-2,1.213285625E-1,-1.601164043E-1
8.996178450E-1,3.077775426E-2,1.321574450E-1,-1.816625446E-1
9.096886450E-1,2.398586832E-2,1.465817839E-1,-2.080286890E-1
9.197899640E-1,1.927576587E-2,1.626169980E-1,-2.314236909E-1
9.298607650E-1,1.572088525E-2,1.802718490E-1,-2.460092157E-1
9.399315650E-1,1.237092540E-2,1.985631734E-1,-2.488647848E-1
9.500023660E-1,9.234354831E-3,2.174817473E-1,-2.380435169E-1
9.600731670E-1,8.264827542E-3,2.370349020E-1,-2.213289887E-1
9.701439680E-1,9.446653537E-3,2.542957067E-1,-2.074792087E-1
9.802147690E-1,9.843971580E-3,2.702479064E-1,-2.052512467E-1
9.902855690E-1,1.138025150E-2,2.819719017E-1,-2.078399807E-1
1.000356370E0,1.597978920E-2,2.914074957E-1,-2.201085985E-1
1.010457688E0,2.266136743E-2,2.995180488E-1,-2.333033234E-1
1.020497972E0,2.947367355E-2,3.043361902E-1,-2.415849268E-1
1.030599290E0,3.348666430E-2,3.058421314E-1,-2.420321852E-1
1.040700608E0,3.857808188E-2,3.040079176E-1,-2.463209629E-1
1.050740892E0,4.570743069E-2,3.008082807E-1,-2.534835935E-1
1.060811692E0,5.096646398E-2,3.001331389E-1,-2.508732677E-1
1.070882493E0,5.336767808E-2,3.029249310E-1,-2.336250246E-1
1.080953294E0,5.581814796E-2,3.062827289E-1,-2.134189755E-1
1.091054612E0,6.025522202E-2,3.121095300E-1,-2.009533346E-1
1.101216966E0,6.569729745E-2,3.233157396E-1,-2.040117532E-1
1.111379319E0,7.114509493E-2,3.359758258E-1,-2.187020183E-1
1.121572190E0,7.655667514E-2,3.490983844E-1,-2.323805541E-1
1.131765061E0,7.993396372E-2,3.578261137E-1,-2.353225946E-1
1.141927415E0,8.024124801E-2,3.631752133E-1,-2.294883877E-1
1.161519700E0,7.725202292E-2,3.668904901E-1,-2.207254469E-1
1.171559983E0,7.777185738E-2,3.663633466E-1,-2.275514156E-1
1.181661302E0,7.897119224E-2,3.646635711E-1,-2.480226755E-1
1.191701585E0,8.281043917E-2,3.628200591E-1,-2.636631131E-1
1.201802903E0,8.542545885E-2,3.608831763E-1,-2.647471726E-1
1.211873704E0,8.296023309E-2,3.569451571E-1,-2.483601868E-1
1.222371751E0,8.031673729E-2,3.510553241E-1,-2.290976644E-1
1.242177659E0,7.753929496E-2,3.433184624E-1,-2.393569946E-1
1.252370530E0,7.553648949E-2,3.376296759E-1,-2.503935993E-1
1.262502366E0,7.252082974E-2,3.339723945E-1,-2.517461479E-1
1.272695237E0,6.949757785E-2,3.323345184E-1,-2.453549653E-1
1.282857591E0,6.746114790E-2,3.326765597E-1,-2.458072007E-1
1.303304368E0,6.740716845E-2,3.430021703E-1,-2.720852196E-1
1.322652513E0,6.371153891E-2,3.587916493E-1,-2.819006145E-1
1.332692796E0,6.199444830E-2,3.664883971E-1,-2.659118474E-1
1.342763597E0,5.940083042E-2,3.730857372E-1,-2.470201105E-1
1.352864915E0,5.690972507E-2,3.776355386E-1,-2.339833379E-1
1.362905198E0,5.355561152E-2,3.792158663E-1,-2.306962907E-1
1.372975999E0,5.225485563E-2,3.788310587E-1,-2.391100824E-1
1.383260423E0,5.203289539E-2,3.765076995E-1,-2.572785914E-1
1.403188401E0,5.382994562E-2,3.632421792E-1,-2.791123688E-1
1.413259202E0,5.290359259E-2,3.562265933E-1,-2.681879997E-1
1.423360520E0,5.009820312E-2,3.483369052E-1,-2.543797791E-1
1.433400804E0,4.541163519E-2,3.386189044E-1,-2.454730123E-1
1.443471604E0,4.079240561E-2,3.300064802E-1,-2.336840481E-1
1.453542405E0,3.721596301E-2,3.215382993E-1,-2.151206732E-1
1.463674241E0,3.371376544E-2,3.141897023E-1,-2.063194960E-1
1.473684007E0,3.223448619E-2,3.069743812E-1,-2.014454752E-1
1.483754808E0,3.181207180E-2,3.008610904E-1,-2.043841928E-1
1.493825608E0,2.855064906E-2,2.948644757E-1,-2.141663283E-1
1.503926927E0,2.440204844E-2,2.870590687E-1,-2.268954962E-1
1.513967210E0,2.131940983E-2,2.794068754E-1,-2.338179052E-1
1.524068528E0,1.832702197E-2,2.728980780E-1,-2.329890728E-1
1.534108811E0,1.639430597E-2,2.685244977E-1,-2.292722464E-1
1.544210130E0,1.550640538E-2,2.643759549E-1,-2.207237929E-1
1.554280931E0,1.566446014E-2,2.585413754E-1,-2.141538560E-1
1.564351731E0,1.394648384E-2,2.559159696E-1,-2.144298553E-1
1.574422532E0,1.424331777E-2,2.545792162E-1,-2.244663835E-1
1.584462815E0,1.752266660E-2,2.535765469E-1,-2.248097062E-1
1.594594651E0,2.085288428E-2,2.538641095E-1,-2.242111564E-1
1.604757005E0,2.227880433E-2,2.544859052E-1,-2.226724029E-1
1.614949876E0,2.276273817E-2,2.573460340E-1,-2.201900631E-1
1.625112229E0,2.425895818E-2,2.614275515E-1,-2.157890797E-1
1.635305101E0,2.578515746E-2,2.666981816E-1,-2.114121765E-1
1.654988938E0,2.991796099E-2,2.748090923E-1,-2.056403011E-1
1.665059739E0,3.251193836E-2,2.756352723E-1,-1.974326819E-1
1.675130540E0,3.511833772E-2,2.736288607E-1,-1.960535198E-1
1.685201341E0,3.871706873E-2,2.697458863E-1,-2.005293518E-1
1.695272142E0,4.039061815E-2,2.649421990E-1,-2.050218135E-1
1.705678636E0,4.110929370E-2,2.572890520E-1,-2.075856030E-1
1.725484544E0,4.253750294E-2,2.451195121E-1,-2.176304460E-1
1.735646897E0,4.514940456E-2,2.386629283E-1,-2.241421789E-1
1.745809251E0,4.380230233E-2,2.332710624E-1,-2.228943557E-1
1.755971604E0,4.138976336E-2,2.279720306E-1,-2.197253704E-1
1.766133958E0,3.984542936E-2,2.218016684E-1,-2.156070024E-1
1.776326829E0,3.818881512E-2,2.176767141E-1,-2.212425172E-1
1.786702806E0,3.546905145E-2,2.156143337E-1,-2.269029766E-1
1.806050950E0,4.049469158E-2,2.117776722E-1,-2.090986073E-1
1.816121751E0,4.047390446E-2,2.071024179E-1,-2.012002319E-1
1.826162034E0,3.845733404E-2,2.015635967E-1,-2.098609358E-1
1.836263352E0,3.447099775E-2,1.981115341E-1,-2.243757695E-1
1.846334153E0,3.242714331E-2,1.957749873E-1,-2.408500463E-1
1.856374436E0,3.525950387E-2,1.955363154E-1,-2.485821396E-1
1.866628343E0,4.003829509E-2,1.945103705E-1,-2.417362183E-1
1.886586839E0,3.888561577E-2,1.930294484E-1,-1.920881271E-1
1.896688157E0,3.490561992E-2,1.945523173E-1,-1.804155707E-1
1.906728440E0,3.677032515E-2,1.982046813E-1,-1.950235218E-1
1.916829759E0,4.059444740E-2,2.039729208E-1,-2.154773325E-1
1.926870042E0,4.539833590E-2,2.088898122E-1,-2.301068902E-1
1.936971360E0,4.923160374E-2,2.129284143E-1,-2.311227620E-1
1.947080225E0,5.209067091E-2,2.141130418E-1,-2.272853851E-1
1.957089990E0,5.105271190E-2,2.172594219E-1,-2.292938679E-1
1.967191309E0,4.903650284E-2,2.233044952E-1,-2.342327386E-1
1.977231592E0,4.993905500E-2,2.302697450E-1,-2.352876812E-1
1.987302393E0,5.181036144E-2,2.400595397E-1,-2.275979519E-1
1.997373193E0,5.269820988E-2,2.487461269E-1,-2.140807062E-1
2.007443994E0,5.453661829E-2,2.562840879E-1,-2.073860765E-1
2.017514795E0,5.245634541E-2,2.636329532E-1,-2.007055879E-1
2.027585596E0,4.839851707E-2,2.678444684E-1,-2.066869587E-1
2.037656397E0,4.528756067E-2,2.660331130E-1,-2.185183018E-1
2.047727197E0,4.605050758E-2,2.621208727E-1,-2.284209728E-1
2.057797998E0,4.679957405E-2,2.570930421E-1,-2.383361161E-1
2.067868799E0,4.850643501E-2,2.509803474E-1,-2.326997817E-1
2.077970117E0,4.824669659E-2,2.447703481E-1,-2.231869847E-1
2.088040918E0,4.504601285E-2,2.355839908E-1,-2.107703984E-1
2.098203272E0,4.182313755E-2,2.263745815E-1,-2.100438178E-1
2.108365625E0,4.053952917E-2,2.181496471E-1,-2.093305439E-1
2.118558496E0,4.023033008E-2,2.118978500E-1,-2.076562643E-1
2.128720850E0,3.992877156E-2,2.057022899E-1,-2.128046304E-1
2.148435205E0,4.030784965E-2,1.935506612E-1,-2.211859971E-1
2.158506006E0,4.195947573E-2,1.847315729E-1,-2.215002328E-1
2.168576807E0,3.875780478E-2,1.731773913E-1,-2.266851813E-1
2.178647607E0,3.558891267E-2,1.618521661E-1,-2.347947061E-1
2.189023584E0,3.343610838E-2,1.536672413E-1,-2.360940576E-1
2.208860010E0,2.928090841E-2,1.410205811E-1,-2.250757366E-1
2.218961328E0,2.534481697E-2,1.336657405E-1,-2.195607722E-1
2.229062647E0,2.439638600E-2,1.237573400E-1,-2.296072692E-1
2.239225000E0,2.448913082E-2,1.152045876E-1,-2.454821467E-1
2.249417871E0,2.951367944E-2,1.070878431E-1,-2.535659075E-1
2.259610742E0,3.265056014E-2,9.846832603E-2,-2.450964153E-1
2.270017236E0,3.097228147E-2,8.742254972E-2,-2.366136312E-1
2.289456934E0,2.580235526E-2,5.527844280E-2,-2.390602082E-1
2.299558252E0,2.424799651E-2,3.904400766E-2,-2.344222814E-1
2.309598535E0,2.272538096E-2,2.333440073E-2,-2.278207541E-1
2.319638818E0,1.832566969E-2,8.160938509E-3,-2.280103117E-1
2.329740137E0,1.786439121E-2,-7.515132893E-3,-2.330472767E-1
2.339810938E0,1.842662320E-2,-2.277866192E-2,-2.370933145E-1
2.349973291E0,2.000644431E-2,-4.048234969E-2,-2.479320467E-1
2.370053857E0,2.426425554E-2,-8.560175449E-2,-2.500760257E-1
2.380094141E0,2.206541598E-2,-1.127408147E-1,-2.365047187E-1
2.390164941E0,1.697773673E-2,-1.389385313E-1,-2.209540755E-1
2.400205225E0,1.191359479E-2,-1.603944451E-1,-2.151007354E-1
2.410276025E0,8.813290857E-3,-1.761833280E-1,-2.150550187E-1
2.420377344E0,4.759307019E-3,-1.892562211E-1,-2.169254720E-1
2.430448145E0,1.702387584E-3,-2.025508732E-1,-2.236334085E-1
2.440518945E0,-3.507650981E-4,-2.160471827E-1,-2.371232361E-1
2.450559229E0,-1.388720120E-3,-2.287851721E-1,-2.496146560E-1
2.460660547E0,-2.374925651E-3,-2.397879660E-1,-2.649965584E-1
2.470731348E0,-3.299924778E-3,-2.480874360E-1,-2.647862434E-1
2.480802148E0,-3.189567011E-3,-2.585676312E-1,-2.480143607E-1
2.490872949E0,-6.896630861E-3,-2.712033689E-1,-2.166220546E-1
2.500943750E0,-1.149268821E-2,-2.831057012E-1,-1.959113628E-1
2.510984033E0,-1.599262282E-2,-2.942517698E-1,-1.985266954E-1
2.521085352E0,-1.845286228E-2,-3.056419492E-1,-2.196073085E-1
2.531156152E0,-1.789920405E-2,-3.143886030E-1,-2.465096563E-1
2.541226953E0,-1.530751120E-2,-3.224748373E-1,-2.656158805E-1
2.551297754E0,-1.359753869E-2,-3.347839117E-1,-2.642832994E-1
2.561368555E0,-1.472693775E-2,-3.503254354E-1,-2.454314530E-1
2.571439356E0,-1.481869444E-2,-3.661745191E-1,-2.275480926E-1
2.581540674E0,-9.994025342E-3,-3.803824484E-1,-2.213422805E-1
2.591733545E0,-5.131738726E-3,-3.929757774E-1,-2.190311998E-1
2.601895898E0,-2.178630093E-3,-4.058941305E-1,-2.079729885E-1
2.612058252E0,1.771491137E-3,-4.162734151E-1,-1.881709695E-1
2.622220606E0,3.795599565E-3,-4.232127368E-1,-1.751973629E-1
2.641934961E0,2.030447358E-3,-4.318947196E-1,-1.921213716E-1
2.651975244E0,3.088405821E-3,-4.317902029E-1,-1.977053583E-1
2.662076563E0,4.114982206E-3,-4.313572645E-1,-1.945654750E-1
2.672483057E0,6.075702608E-3,-4.296617806E-1,-1.758931875E-1
2.692288965E0,5.967371166E-3,-4.254984260E-1,-1.483906209E-1
2.702329248E0,6.798950955E-3,-4.221377075E-1,-1.347004473E-1
2.712430566E0,8.537137881E-3,-4.195686281E-1,-1.327268928E-1
2.722501367E0,1.020871382E-2,-4.177976251E-1,-1.453887373E-1
2.732694238E0,1.084072515E-2,-4.187875092E-1,-1.590680927E-1
2.742856592E0,1.044205483E-2,-4.215709269E-1,-1.825213134E-1
2.753232568E0,9.994441643E-3,-4.232164919E-1,-1.855880320E-1
2.772855371E0,2.143194899E-3,-4.241287112E-1,-1.558616906E-1
2.782926172E0,-1.366638113E-3,-4.214717448E-1,-1.308547705E-1
2.792996973E0,-2.979970537E-3,-4.206711352E-1,-1.165942922E-1
2.803067773E0,-1.725092996E-3,-4.188509285E-1,-1.169750392E-1
2.813138574E0,1.427116687E-3,-4.160689116E-1,-1.290774047E-1
2.823209375E0,4.536513705E-3,-4.123831987E-1,-1.431666166E-1
2.833280176E0,5.665705539E-3,-4.068696797E-1,-1.514615268E-1
2.843350977E0,4.823059309E-3,-4.005399346E-1,-1.597938389E-1
2.853391260E0,2.015015809E-3,-3.953644335E-1,-1.701105237E-1
2.863462061E0,-2.746733371E-3,-3.913506866E-1,-1.794878244E-1
2.873563379E0,-6.528927945E-3,-3.875348866E-1,-1.850044429E-1
2.883603662E0,-9.311719798E-3,-3.829385936E-1,-1.759580225E-1
2.893674463E0,-1.205013972E-2,-3.765865266E-1,-1.494256258E-1
2.903775781E0,-1.471618284E-2,-3.704438508E-1,-1.316736042E-1
2.913846582E0,-1.536596380E-2,-3.645037413E-1,-1.236713231E-1
2.923886865E0,-1.301966608E-2,-3.568449318E-1,-1.361203343E-1
2.933957666E0,-1.058452297E-2,-3.474675119E-1,-1.592875719E-1
2.944058984E0,-1.000997610E-2,-3.402827084E-1,-1.727408171E-1
2.954099268E0,-8.385057561E-3,-3.333365321E-1,-1.813458055E-1
2.964200586E0,-8.633206598E-3,-3.266269565E-1,-1.870461851E-1
2.974271387E0,-7.842828520E-3,-3.211336732E-1,-1.859488338E-1
2.984311670E0,-7.003871724E-3,-3.158959150E-1,-1.829178482E-1
2.994382471E0,-8.067233488E-3,-3.099637032E-1,-1.740609556E-1
3.004514307E0,-1.103447471E-2,-3.033510745E-1,-1.603466719E-1
3.014554590E0,-1.300018188E-2,-2.970428169E-1,-1.466398686E-1
3.024625391E0,-1.494271774E-2,-2.910390198E-1,-1.368311197E-1
3.034696191E0,-1.395609602E-2,-2.843927145E-1,-1.377256215E-1
3.044766992E0,-1.393266395E-2,-2.780937552E-1,-1.522437930E-1
3.054807275E0,-1.194851100E-2,-2.750303149E-1,-1.677346081E-1
3.064908594E0,-9.948873892E-3,-2.732596397E-1,-1.832254231E-1
3.074948877E0,-7.937391289E-3,-2.727631629E-1,-1.889873147E-1
3.085080713E0,-5.918946583E-3,-2.744682431E-1,-1.869671941E-1
3.095273584E0,-3.885797691E-3,-2.754302025E-1,-1.839761138E-1
3.105435938E0,-8.790689753E-4,-2.775751054E-1,-1.887728423E-1
3.115628809E0,1.140415203E-3,-2.789378464E-1,-1.955198348E-1
3.125821680E0,2.160912612E-3,-2.785174549E-1,-1.906009018E-1
3.145475000E0,-1.751902979E-3,-2.752530873E-1,-1.681361347E-1
3.156369775E0,-8.542333380E-4,-2.714158297E-1,-1.768600196E-1
3.175687402E0,8.583275601E-3,-2.603303194E-1,-2.118402869E-1
3.185758203E0,1.322978362E-2,-2.540545166E-1,-2.244738638E-1
3.195829004E0,1.588460431E-2,-2.469794601E-1,-2.137631327E-1
3.205899805E0,1.751892641E-2,-2.410562038E-1,-1.913798451E-1
3.215970606E0,1.812984236E-2,-2.362705022E-1,-1.602435857E-1
3.226102441E0,2.063575387E-2,-2.326203436E-1,-1.582982987E-1
3.236478418E0,2.309043333E-2,-2.310760021E-1,-1.709476709E-1
3.256589502E0,2.981466986E-2,-2.342013419E-1,-2.147474289E-1
3.266782373E0,3.214870393E-2,-2.368623167E-1,-2.206057459E-1
3.286466211E0,3.374832124E-2,-2.443358749E-1,-2.352693975E-1
3.296506494E0,3.395505995E-2,-2.481458038E-1,-2.411617935E-1
3.306577295E0,3.504247591E-2,-2.520044744E-1,-2.441487163E-1
3.316648096E0,3.408235312E-2,-2.568728030E-1,-2.208833843E-1
3.326718897E0,3.398561105E-2,-2.617715597E-1,-2.024995834E-1
3.336820215E0,3.280352429E-2,-2.647216022E-1,-1.831639111E-1
3.346860498E0,3.054971248E-2,-2.686496973E-1,-1.784395278E-1
3.356931299E0,3.113568947E-2,-2.705975771E-1,-1.961125433E-1
3.367032617E0,3.360595554E-2,-2.696146369E-1,-2.167209834E-1
3.377103418E0,3.408121318E-2,-2.666664720E-1,-2.305383533E-1
3.397061914E0,2.324682660E-2,-2.579048872E-1,-1.910822392E-1
3.407224268E0,1.780105568E-2,-2.569622695E-1,-1.679648906E-1
3.417295068E0,1.236432698E-2,-2.560495734E-1,-1.516660303E-1
3.427335352E0,8.897566237E-3,-2.590311170E-1,-1.382959038E-1
3.437436670E0,6.434365176E-3,-2.619965374E-1,-1.259092391E-1
3.447507471E0,3.031356493E-3,-2.658710182E-1,-1.232681349E-1
3.457578272E0,6.358558894E-4,-2.696667016E-1,-1.245375648E-1
3.467649072E0,-7.539552753E-4,-2.713818252E-1,-1.394530982E-1
3.477719873E0,-2.110461704E-3,-2.710369229E-1,-1.436895132E-1
3.487790674E0,-5.389292259E-3,-2.696094513E-1,-1.450320929E-1
3.497830957E0,-8.643389679E-3,-2.709956765E-1,-1.347228885E-1
3.507932275E0,-8.932793513E-3,-2.722710371E-1,-1.254096180E-1
3.517972559E0,-1.013036165E-2,-2.724606693E-1,-1.170922592E-1
3.528043359E0,-1.124095358E-2,-2.706109881E-1,-1.126862615E-1
3.548184961E0,-1.311833505E-2,-2.638486326E-1,-1.204458028E-1
3.558255762E0,-1.288068015E-2,-2.600087523E-1,-1.335715204E-1
3.568326563E0,-1.249822136E-2,-2.591443658E-1,-1.496101767E-1
3.578458398E0,-1.197189186E-2,-2.564136088E-1,-1.646703631E-1
3.589353174E0,-1.131244749E-2,-2.528116107E-1,-1.719385982E-1
3.608975977E0,-1.160522830E-2,-2.449335903E-1,-1.650469601E-1
3.619138330E0,-9.675006382E-3,-2.386950552E-1,-1.489467770E-1
3.639005273E0,-2.755566034E-3,-2.284026891E-1,-1.342515349E-1
3.658994287E0,3.217728343E-3,-2.184777558E-1,-1.536071599E-1
3.669065088E0,3.254150273E-3,-2.146614939E-1,-1.627957523E-1
3.679135889E0,4.232925829E-3,-2.110131383E-1,-1.710017025E-1
3.689206690E0,5.177876912E-3,-2.075313628E-1,-1.791968495E-1
3.699277490E0,5.177876912E-3,-2.075313628E-1,-1.791968495E-1
3.709348291E0,8.884992450E-3,-1.972727627E-1,-1.741416007E-1
3.719541162E0,8.720183745E-3,-1.905056238E-1,-1.608903557E-1
3.729611963E0,7.532590535E-3,-1.829886138E-1,-1.466456801E-1
3.739774316E0,8.235315792E-3,-1.757338792E-1,-1.401597261E-1
3.749967188E0,9.852960706E-3,-1.707094908E-1,-1.365642697E-1
3.760160059E0,1.141511463E-2,-1.659537256E-1,-1.387755871E-1
3.770932764E0,1.292281784E-2,-1.624530256E-1,-1.467969865E-1
3.789945215E0,1.481801923E-2,-1.610897630E-1,-1.617798656E-1
3.799985498E0,1.521533821E-2,-1.602687240E-1,-1.697206348E-1
3.810056299E0,1.557748299E-2,-1.596512645E-1,-1.727732420E-1
3.820127100E0,1.590133458E-2,-1.582568437E-1,-1.699683666E-1
3.830228418E0,1.617899537E-2,-1.560692191E-1,-1.651965827E-1
3.840360254E0,1.542852074E-2,-1.540800780E-1,-1.604056954E-1
3.850370020E0,1.559083629E-2,-1.503204405E-1,-1.585144401E-1
3.860471338E0,1.666329056E-2,-1.467445046E-1,-1.585501879E-1
3.870542139E0,1.864791103E-2,-1.423576325E-1,-1.624590605E-1
3.880551904E0,2.155056968E-2,-1.381353587E-1,-1.673256010E-1
3.890683740E0,2.343065292E-2,-1.340924352E-1,-1.702235788E-1
3.900754541E0,2.526547946E-2,-1.292268336E-1,-1.711596549E-1
3.910825342E0,2.511319146E-2,-1.255061626E-1,-1.691561639E-1
3.920896143E0,2.686405368E-2,-1.238699034E-1,-1.681103706E-1
3.930966943E0,2.760081366E-2,-1.233643666E-1,-1.699625552E-1
3.941037744E0,2.829906903E-2,-1.220071241E-1,-1.698569655E-1
3.951444238E0,2.799070068E-2,-1.207863241E-1,-1.648698747E-1
3.971280664E0,2.825048752E-2,-1.206378415E-1,-1.499884129E-1
3.981320947E0,2.979300357E-2,-1.177893206E-1,-1.595569253E-1
3.991391748E0,3.130450100E-2,-1.130831093E-1,-1.720350236E-1
4.001493066E0,3.083984368E-2,-1.055761874E-1,-1.660129428E-1
4.011533350E0,3.034203872E-2,-1.001193076E-1,-1.512229294E-1
4.021543115E0,2.786631510E-2,-9.768851846E-2,-1.325282156E-1
4.031552881E0,2.827922255E-2,-9.731858224E-2,-1.274380386E-1
4.041715234E0,2.866500430E-2,-9.901717305E-2,-1.349789351E-1
4.051847070E0,2.999511734E-2,-1.027603969E-1,-1.512645036E-1
4.061887354E0,3.226514161E-2,-1.075470373E-1,-1.685143858E-1
4.071958154E0,3.256218135E-2,-1.124093235E-1,-1.886730641E-1
4.082089990E0,3.090011328E-2,-1.154232770E-1,-2.059005052E-1
4.092313379E0,2.824918926E-2,-1.155578494E-1,-2.085308135E-1
4.102445215E0,2.267996967E-2,-1.147764102E-1,-2.082348764E-1
4.112638086E0,2.197729610E-2,-1.130393669E-1,-2.128021270E-1
4.122800440E0,2.517574839E-2,-1.084303185E-1,-2.124962062E-1
4.133145898E0,2.740898356E-2,-1.067684069E-1,-1.956478506E-1
4.152524561E0,3.190096840E-2,-1.113079265E-1,-1.444277167E-1
4.162595361E0,3.414615616E-2,-1.155136824E-1,-1.489817053E-1
4.172666162E0,3.929764032E-2,-1.167828962E-1,-1.681336462E-1
4.182736963E0,4.247863591E-2,-1.170573458E-1,-1.921571344E-1
4.192807764E0,4.173855111E-2,-1.153883636E-1,-2.015917897E-1
4.203244775E0,3.999257460E-2,-1.117938384E-1,-1.964326054E-1
4.223081201E0,3.155883029E-2,-1.046939567E-1,-1.724880934E-1
4.233243555E0,3.074003384E-2,-1.002315283E-1,-1.595361382E-1
4.243405908E0,3.090016544E-2,-9.579987079E-2,-1.465791762E-1
4.253598779E0,3.009960428E-2,-9.430920333E-2,-1.297258288E-1
4.263791650E0,3.028181940E-2,-9.477110952E-2,-1.196826547E-1
4.284146875E0,2.678102627E-2,-9.372135997E-2,-1.550586522E-1
4.303556055E0,2.046611160E-2,-8.699254692E-2,-1.972148865E-1
4.314084619E0,1.688088849E-2,-8.181072026E-2,-1.978367120E-1
4.333798975E0,9.834671393E-3,-6.988231838E-2,-1.883064508E-1
4.343869775E0,7.336607203E-3,-6.409674883E-2,-1.791278571E-1
4.353910059E0,5.851454102E-3,-5.655210465E-2,-1.747792065E-1
4.364072412E0,3.428831464E-3,-5.207284912E-2,-1.801312566E-1
4.374082178E0,2.010807162E-3,-4.672174528E-2,-1.922751814E-1
4.384122461E0,6.472346140E-4,-4.158927873E-2,-2.034015656E-1
4.394223779E0,-1.645857701E-3,-3.759717569E-2,-2.125494182E-1
4.404294580E0,-5.806874484E-3,-3.291393444E-2,-2.196971029E-1
4.414365381E0,-7.933651097E-3,-2.449983172E-2,-2.277816981E-1
4.424405664E0,-1.089980081E-2,-1.824716292E-2,-2.319258153E-1
4.434476465E0,-1.272158604E-2,-8.273192681E-3,-2.214345485E-1
4.444547266E0,-1.434905175E-2,4.487984814E-3,-2.002018243E-1
4.454618066E0,-1.481609698E-2,1.416049805E-2,-1.828164160E-1
4.464719385E0,-1.520525850E-2,2.052342147E-2,-1.867585480E-1
4.474790186E0,-1.551373117E-2,2.746161819E-2,-1.974335164E-1
4.484860986E0,-1.669067331E-2,3.398675472E-2,-2.080253661E-1
4.495206445E0,-1.677182876E-2,4.007648304E-2,-2.156111598E-1
4.515073389E0,-1.768191718E-2,5.302460492E-2,-2.159619927E-1
4.525144190E0,-1.757488586E-2,6.190102547E-2,-2.067966610E-1
4.535245508E0,-1.757488586E-2,6.190102547E-2,-2.067966610E-1
4.545316309E0,-1.425573602E-2,8.148993552E-2,-1.833966821E-1
4.555356592E0,-1.205289364E-2,9.029122442E-2,-1.779257655E-1
4.565427393E0,-9.825267829E-3,9.485548735E-2,-1.743394583E-1
4.575498193E0,-7.603668608E-3,9.619599581E-2,-1.765374541E-1
4.585630029E0,-5.390122999E-3,9.526283294E-2,-1.845156401E-1
4.595853418E0,-3.202036954E-3,9.501095116E-2,-1.924472600E-1
4.605985254E0,-2.014288446E-3,9.447307885E-2,-1.954674423E-1
4.616178125E0,-1.836334006E-3,9.370504320E-2,-1.974792480E-1
4.626370996E0,-7.275608950E-4,9.467976540E-2,-1.975149959E-1
4.645993799E0,2.332787961E-3,9.697047621E-2,-1.955480725E-1
4.656064600E0,3.294625320E-3,9.931697696E-2,-1.955040246E-1
4.666135400E0,3.225885564E-3,1.044041291E-1,-1.925179213E-1
4.677182764E0,3.098901361E-3,1.112721860E-1,-1.904836893E-1
4.687375635E0,2.920583123E-3,1.179568321E-1,-1.855049133E-1
4.706479639E0,4.588886804E-4,1.288889945E-1,-1.891103536E-1
4.716489404E0,2.070454415E-3,1.341135353E-1,-2.006133199E-1
4.726590723E0,3.632868640E-3,1.391792893E-1,-2.140408009E-1
4.736753076E0,5.147481803E-3,1.440616250E-1,-2.167459130E-1
4.746945947E0,5.639051553E-3,1.507047117E-1,-2.087261677E-1
4.757108301E0,4.134985618E-3,1.571704000E-1,-2.006864697E-1
4.767301172E0,2.586132847E-3,1.615063697E-1,-1.965157390E-1
4.786985010E0,3.282155376E-3,1.716630161E-1,-2.056353241E-1
4.797055811E0,3.592185909E-3,1.765270680E-1,-2.004437298E-1
4.807126611E0,9.638116462E-4,1.802785099E-1,-1.903706193E-1
4.817197412E0,-7.036085008E-4,1.829084754E-1,-1.929310858E-1
4.827268213E0,5.427480792E-4,1.882792413E-1,-2.100621164E-1
4.837339014E0,1.789935981E-3,1.963508427E-1,-2.271648347E-1
4.847409815E0,3.039773554E-3,2.061253935E-1,-2.257524282E-1
4.857755273E0,2.347128233E-3,2.156181335E-1,-2.155471593E-1
4.877622217E0,9.691633168E-4,2.220340520E-1,-1.775092781E-1
4.887662500E0,3.208739450E-3,2.189837396E-1,-1.808154434E-1
4.897763818E0,6.429377012E-3,2.166461498E-1,-1.996564716E-1
4.907834619E0,8.685631678E-3,2.160335779E-1,-2.291758209E-1
4.917905420E0,9.973606095E-3,2.161950618E-1,-2.489470989E-1
4.927945703E0,1.126495842E-2,2.181355804E-1,-2.541104257E-1
4.938016504E0,1.061834674E-2,2.189590037E-1,-2.436998188E-1
4.948117822E0,6.088120397E-3,2.215888798E-1,-2.293877900E-1
4.958188623E0,4.478892777E-3,2.279714346E-1,-2.238229513E-1
4.968228906E0,8.705115877E-3,2.371031940E-1,-2.270035595E-1
4.978299707E0,1.292266138E-2,2.470317483E-1,-2.272546291E-1
4.988401025E0,1.615878381E-2,2.557865679E-1,-2.226250172E-1
4.998441309E0,1.937744580E-2,2.623782158E-1,-2.247922719E-1
5.008512109E0,2.257361077E-2,2.648602128E-1,-2.444563061E-1
5.018582910E0,2.574525401E-2,2.681002915E-1,-2.699437439E-1
5.028684229E0,2.889865823E-2,2.750067115E-1,-2.837436795E-1
5.039029688E0,3.009430505E-2,2.875241041E-1,-2.839099169E-1
5.058896631E0,2.661886811E-2,3.088380098E-1,-2.355428934E-1
5.068936914E0,2.678809501E-2,3.156901598E-1,-2.191185057E-1
5.079068750E0,2.982682735E-2,3.203471899E-1,-2.094951421E-1
5.089200586E0,3.183088079E-2,3.208943009E-1,-2.115435004E-1
5.099393457E0,3.668287769E-2,3.173677325E-1,-2.252661139E-1
5.109555811E0,4.145216569E-2,3.098171949E-1,-2.458113581E-1
5.119748682E0,4.515486211E-2,3.002087772E-1,-2.634511292E-1
5.139432520E0,4.736357927E-2,2.827148139E-1,-2.754445672E-1
5.149533838E0,4.489481822E-2,2.768177390E-1,-2.600743175E-1
5.159604639E0,4.135552421E-2,2.738192677E-1,-2.330580801E-1
5.169675440E0,3.967563435E-2,2.737066150E-1,-2.109308243E-1
5.179746240E0,3.889179975E-2,2.725760639E-1,-1.995259672E-1
5.189786523E0,3.804063424E-2,2.723756135E-1,-1.998202503E-1
5.199887842E0,3.810521588E-2,2.721295059E-1,-2.088916153E-1
5.209958643E0,3.714852408E-2,2.728175819E-1,-2.238221020E-1
5.220853418E0,3.615649790E-2,2.734811008E-1,-2.436399460E-1
5.240506738E0,3.217509761E-2,2.719823122E-1,-2.755767703E-1
5.250547022E0,3.019073792E-2,2.727820873E-1,-2.750497162E-1
5.260709375E0,2.531146258E-2,2.755760550E-1,-2.599554360E-1
5.270902246E0,2.144213393E-2,2.774516046E-1,-2.371041179E-1
5.290525049E0,1.675717905E-2,2.833723426E-1,-2.187219560E-1
5.300595850E0,1.594980992E-2,2.825960815E-1,-2.270842046E-1
5.310666650E0,1.714051887E-2,2.838943303E-1,-2.461796254E-1
5.320767969E0,1.838105731E-2,2.862696648E-1,-2.633563578E-1
5.330808252E0,1.870433800E-2,2.897121310E-1,-2.698572874E-1
5.340879053E0,1.810874790E-2,2.951786220E-1,-2.676260173E-1
5.350949854E0,1.756937802E-2,3.006594181E-1,-2.586020529E-1
5.361051172E0,1.708258875E-2,3.061077893E-1,-2.515366673E-1
5.371091455E0,1.762429625E-2,3.134303093E-1,-2.464281917E-1
5.381162256E0,1.918026805E-2,3.225381970E-1,-2.393761128E-1
5.391233057E0,1.979913376E-2,3.304807246E-1,-2.381632030E-1
5.401578516E0,2.141761035E-2,3.352725208E-1,-2.350058705E-1
5.421445459E0,2.669659629E-2,3.431526423E-1,-2.471763790E-1
5.431516260E0,2.938549966E-2,3.443258405E-1,-2.527811527E-1
5.441587061E0,3.015597910E-2,3.433633149E-1,-2.506080866E-1
5.451657861E0,2.900870331E-2,3.422411680E-1,-2.484466285E-1
5.461728662E0,2.885579318E-2,3.400230408E-1,-2.463018447E-1
5.471829981E0,2.677899972E-2,3.357456326E-1,-2.441719919E-1
5.481870264E0,2.471644431E-2,3.304180801E-1,-2.362237573E-1
5.491941065E0,2.460780181E-2,3.250185251E-1,-2.331619859E-1
5.502042383E0,2.645114809E-2,3.195820451E-1,-2.359602153E-1
5.512082666E0,3.023983911E-2,3.131565750E-1,-2.426764667E-1
5.522153467E0,3.498922288E-2,3.067520559E-1,-2.494217753E-1
5.532224268E0,3.874647617E-2,3.003996313E-1,-2.542525828E-1
5.542264551E0,4.149144143E-2,2.960601151E-1,-2.454971075E-1
5.552365869E0,4.028836638E-2,2.917933464E-1,-2.299664021E-1
5.562406152E0,3.804317862E-2,2.905409634E-1,-2.057159692E-1
5.572507471E0,3.474574909E-2,2.913221419E-1,-1.980403960E-1
5.582852930E0,2.942171693E-2,2.941328585E-1,-2.079123110E-1
5.602964014E0,3.022310697E-2,3.047899306E-1,-2.180319726E-1
5.613156885E0,3.151222691E-2,3.048466444E-1,-2.056253403E-1
5.623349756E0,3.081942350E-2,3.010976017E-1,-1.951981038E-1
5.643003076E0,3.325721622E-2,2.901120186E-1,-2.143259495E-1
5.653073877E0,3.445837274E-2,2.868189514E-1,-2.331802845E-1
5.663144678E0,3.565791622E-2,2.846842408E-1,-2.433107346E-1
5.673184961E0,3.491663560E-2,2.827425003E-1,-2.398491353E-1
5.683286279E0,3.224082664E-2,2.809819281E-1,-2.198774964E-1
5.693357080E0,2.957706712E-2,2.793961763E-1,-1.950667500E-1
5.703427881E0,2.887434140E-2,2.760384977E-1,-1.858507395E-1
5.713498682E0,3.110337257E-2,2.757444382E-1,-2.009790987E-1
5.723630518E0,3.528335318E-2,2.765479684E-1,-2.209956348E-1
5.733792871E0,3.946255147E-2,2.764722705E-1,-2.351987213E-1
5.743955225E0,4.459901899E-2,2.755078971E-1,-2.328843176E-1
5.754026025E0,4.776416719E-2,2.736192346E-1,-2.237838805E-1
5.764890283E0,4.895310849E-2,2.727665901E-1,-2.224870026E-1
5.784055322E0,4.926994815E-2,2.808023989E-1,-2.287160903E-1
5.794095606E0,4.840963706E-2,2.886595130E-1,-2.187277973E-1
5.804135889E0,4.752194136E-2,2.935264707E-1,-2.029202282E-1
5.814206690E0,4.952074587E-2,2.992874682E-1,-1.919991821E-1
5.824277490E0,4.952074587E-2,2.992874682E-1,-1.919991821E-1
5.834348291E0,5.145705119E-2,3.019019663E-1,-1.887021661E-1
5.844419092E0,5.333115160E-2,3.017336130E-1,-2.002209276E-1
5.854489893E0,5.612719432E-2,2.996378839E-1,-2.185756415E-1
5.864560693E0,5.789115280E-2,2.956281006E-1,-2.330622375E-1
5.874600977E0,5.861190706E-2,2.926189303E-1,-2.310329825E-1
5.884702295E0,5.634983256E-2,2.906062603E-1,-2.173561156E-1
5.894773096E0,5.013946071E-2,2.885995507E-1,-1.998110861E-1
5.904843897E0,4.583722353E-2,2.856420279E-1,-1.861791164E-1
5.914884180E0,4.248648137E-2,2.856184542E-1,-1.793789119E-1
5.924985498E0,4.010131955E-2,2.865625918E-1,-1.794080138E-1
5.935056299E0,3.868656978E-2,2.874969542E-1,-1.872407049E-1
5.945432275E0,3.922038153E-2,2.874445319E-1,-1.989831030E-1
5.965268701E0,4.031377286E-2,2.853298187E-1,-2.157150656E-1
5.975339502E0,3.796996921E-2,2.823277414E-1,-2.197295278E-1
5.985410303E0,3.759774566E-2,2.822389007E-1,-2.208418250E-1
5.995481104E0,3.726116568E-2,2.831217945E-1,-2.132169753E-1
6.005551904E0,3.696843609E-2,2.830155790E-1,-2.046335787E-1
6.015622705E0,3.477847949E-2,2.809669375E-1,-1.960668415E-1
6.025724023E0,3.263793513E-2,2.799180746E-1,-1.952995360E-1
6.035764307E0,3.152126446E-2,2.779587507E-1,-2.023274899E-1
6.045865625E0,3.337064013E-2,2.760674655E-1,-2.122883648E-1
6.055905908E0,3.526578844E-2,2.733208835E-1,-2.154548913E-1
6.065976709E0,3.622918576E-2,2.707056403E-1,-2.166902125E-1
6.076108545E0,3.625859320E-2,2.672480345E-1,-2.169637233E-1
6.086270898E0,3.632603586E-2,2.639216185E-1,-2.182231694E-1
6.096433252E0,3.546125442E-2,2.626677155E-1,-2.156028599E-1
6.106595606E0,3.560258076E-2,2.605449259E-1,-2.159137726E-1
6.116818994E0,3.675463051E-2,2.585232258E-1,-2.162371576E-1
6.127133936E0,3.793713450E-2,2.565896809E-1,-2.175448090E-1
6.146543115E0,3.844403103E-2,2.442632914E-1,-2.182497680E-1
6.156583398E0,3.872938082E-2,2.358485162E-1,-2.176462412E-1
6.166654199E0,3.707801923E-2,2.266467214E-1,-2.170535028E-1
6.176755518E0,3.639820591E-2,2.176548839E-1,-2.086854279E-1
6.186795801E0,3.571335226E-2,2.079263628E-1,-2.042170912E-1
6.196805566E0,3.501966968E-2,1.984615773E-1,-2.055920959E-1
6.206937402E0,3.334606439E-2,1.902346462E-1,-2.069737613E-1
6.217038721E0,3.360486403E-2,1.822748184E-1,-2.093330324E-1
6.227201074E0,3.288047388E-2,1.746166050E-1,-2.175315171E-1
6.237393945E0,3.214636818E-2,1.672384143E-1,-2.247598469E-1
6.247556299E0,3.141069785E-2,1.582335085E-1,-2.232318670E-1
6.257718652E0,3.262068704E-2,1.505230367E-1,-2.197544724E-1
6.277433008E0,3.503379971E-2,1.390486360E-1,-2.196031511E-1
6.287503809E0,3.331130743E-2,1.372040212E-1,-2.161157876E-1
6.297605127E0,3.061995842E-2,1.356838793E-1,-2.106772810E-1
6.308591455E0,2.697015367E-2,1.354260892E-1,-2.071774155E-1
6.327817529E0,2.169864811E-2,1.337783635E-1,-2.089132071E-1
6.337857813E0,2.106248029E-2,1.323509514E-1,-2.083096802E-1
6.347959131E0,1.950136572E-2,1.331270784E-1,-1.989406943E-1
6.358029932E0,1.701431535E-2,1.321895421E-1,-1.954001039E-1
6.368070215E0,1.554568484E-2,1.305333525E-1,-1.996315271E-1
6.378171533E0,1.411893126E-2,1.290993840E-1,-2.116366327E-1
6.388211816E0,1.565157436E-2,1.259084046E-1,-2.168232352E-1
6.398313135E0,1.624908671E-2,1.209905744E-1,-2.161623240E-1
6.408353418E0,1.590600982E-2,1.162548587E-1,-2.145204693E-1
6.418424219E0,1.364830043E-2,1.107188836E-1,-2.060617805E-1
6.428495020E0,1.142649353E-2,1.053745374E-1,-1.937008947E-1
6.438565820E0,1.021780632E-2,1.011559069E-1,-1.871708781E-1
6.448636621E0,1.196934655E-2,9.802525491E-2,-1.903623194E-1
6.458707422E0,1.473961584E-2,9.797293693E-2,-1.954898983E-1
6.468778223E0,1.949492283E-2,9.997324646E-2,-2.015851289E-1
6.478879541E0,2.233460732E-2,1.010682508E-1,-2.067035735E-1
6.489194482E0,2.422185987E-2,1.031710729E-1,-2.118211687E-1
6.509091943E0,2.705941536E-2,1.074480563E-1,-2.259461284E-1
6.519132227E0,2.800213173E-2,1.105336100E-1,-2.242569029E-1
6.529233545E0,2.992030047E-2,1.145723239E-1,-2.138155252E-1
6.539273828E0,2.989276312E-2,1.166549399E-1,-2.072680295E-1
6.549344629E0,2.986366488E-2,1.196847260E-1,-2.016965300E-1
6.559445947E0,3.080773354E-2,1.217198074E-1,-2.000222504E-1
6.569516748E0,3.369080275E-2,1.227530241E-1,-2.061332911E-1
6.579618066E0,3.460925817E-2,1.218452230E-1,-2.141945958E-1
6.589810938E0,3.645966947E-2,1.170671657E-1,-2.144780755E-1
6.599973291E0,3.824711218E-2,1.152807549E-1,-2.206015736E-1
6.610166162E0,3.800353408E-2,1.125769392E-1,-2.208925486E-1
6.620359033E0,3.571719676E-2,1.089928076E-1,-2.114603817E-1
6.640012354E0,2.796726674E-2,9.908612818E-2,-1.955297887E-1
6.650083154E0,2.450487390E-2,9.279474616E-2,-2.055654973E-1
6.660153955E0,2.199428529E-2,8.752931654E-2,-2.175464779E-1
6.671231836E0,2.045270801E-2,8.136820048E-2,-2.207703292E-1
6.690396875E0,1.834692247E-2,6.530699879E-2,-2.155363560E-1
6.700437158E0,1.489050034E-2,5.647546425E-2,-2.138828486E-1
6.710507959E0,1.049936377E-2,4.975533485E-2,-2.180552334E-1
6.720639795E0,8.098927327E-3,4.416699335E-2,-2.241604626E-1
6.730802148E0,8.668953553E-3,3.974166885E-2,-2.224670649E-1
6.740964502E0,1.025874913E-2,3.646590561E-2,-2.178415954E-1
6.751126856E0,1.091460884E-2,3.432816640E-2,-2.190395296E-1
6.761350244E0,1.063663606E-2,2.953046188E-2,-2.134090066E-1
6.781034082E0,8.301925845E-3,1.482420228E-2,-2.157117575E-1
6.791074365E0,1.017504558E-2,6.908321287E-3,-2.216905951E-1
6.801145166E0,1.309775934E-2,-7.851817645E-4,-2.276486754E-1
6.811215967E0,1.510986499E-2,-7.284701336E-3,-2.238595188E-1
6.821317285E0,1.522858813E-2,-1.656145416E-2,-2.210288793E-1
6.831357568E0,1.538705826E-2,-2.645281143E-2,-2.201194167E-1
6.841428369E0,1.653479971E-2,-3.581212461E-2,-2.269553542E-1
6.851804346E0,1.848050393E-2,-4.456810281E-2,-2.337646931E-1
6.871640772E0,2.066079713E-2,-6.524137408E-2,-2.570474744E-1
6.881742090E0,2.092042938E-2,-8.055277914E-2,-2.647280395E-1
6.891782373E0,1.923238114E-2,-9.933245927E-2,-2.704358697E-1
6.901883691E0,1.657740586E-2,-1.214859933E-1,-2.712430954E-1
6.911923975E0,1.391536277E-2,-1.460981071E-1,-2.710502446E-1
6.921994775E0,1.125555299E-2,-1.749610156E-1,-2.669260800E-1
6.932065576E0,9.564389475E-3,-2.051493973E-1,-2.608174980E-1
6.942136377E0,8.838178590E-3,-2.356100231E-1,-2.507751584E-1
6.952207178E0,1.004499570E-2,-2.662506402E-1,-2.387401611E-1
6.962277979E0,9.288443252E-3,-2.950684428E-1,-2.276279032E-1
6.972348779E0,8.509756066E-3,-3.210173547E-1,-2.164641023E-1
6.982419580E0,9.661134332E-3,-3.459953368E-1,-2.110846192E-1
6.992459863E0,8.852051571E-3,-3.709448874E-1,-2.105159909E-1
7.002561182E0,8.032213897E-3,-3.958486915E-1,-2.069779038E-1
7.012601465E0,8.173798211E-3,-4.177695513E-1,-1.975548863E-1
7.022702783E0,1.316707022E-2,-4.376654625E-1,-1.764102727E-1
7.033048242E0,1.231392752E-2,-4.565376341E-1,-1.571702063E-1
7.052915186E0,1.057906635E-2,-4.873391986E-1,-1.487447619E-1
7.062985986E0,1.065835450E-2,-4.944454730E-1,-1.615171582E-1
7.073178857E0,1.071976777E-2,-4.986814857E-1,-1.762198955E-1
7.083341211E0,1.076471154E-2,-5.020297766E-1,-1.695069820E-1
7.093503565E0,9.823448956E-3,-5.074406266E-1,-1.637633890E-1
7.103696436E0,5.950692575E-3,-5.158964992E-1,-1.434268057E-1
7.123410791E0,-4.737900570E-3,-5.381147265E-1,-1.202928424E-1
7.133481592E0,-4.728911910E-3,-5.489921570E-1,-1.447452903E-1
7.143521875E0,-2.761437325E-3,-5.610370040E-1,-1.682467014E-1
7.153623193E0,2.150832675E-3,-5.752449632E-1,-1.908045709E-1
7.163693994E0,5.146078765E-3,-5.887283087E-1,-1.958831102E-1
7.173764795E0,3.953446576E-4,-6.005640030E-1,-1.864093840E-1
7.183835596E0,-6.260463037E-3,-6.098317504E-1,-1.701712012E-1
7.193906397E0,-8.013457991E-3,-6.175678372E-1,-1.539862454E-1
7.204038232E0,-1.069804933E-2,-6.238227487E-1,-1.427226961E-1
7.214871973E0,-1.625163108E-2,-6.257521510E-1,-1.324957907E-1
7.234525293E0,-2.137484774E-2,-6.159676313E-1,-1.132207960E-1
7.244687647E0,-1.996924169E-2,-6.063914299E-1,-1.236372441E-1
7.264402002E0,-7.267036010E-3,-5.831738114E-1,-1.855581105E-1
7.274472803E0,-1.801314647E-3,-5.706310272E-1,-2.107961625E-1
7.284543604E0,1.757774269E-3,-5.552777052E-1,-2.176271230E-1
7.294614404E0,1.461824286E-3,-5.400974751E-1,-1.885367334E-1
7.304685205E0,-2.695399337E-3,-5.290059447E-1,-1.536853015E-1
7.314725488E0,-7.781987078E-3,-5.171347857E-1,-1.383624077E-1
7.324826807E0,-1.089938451E-2,-5.044897199E-1,-1.289493740E-1
7.334897607E0,-1.202831790E-2,-4.910964966E-1,-1.371179223E-1
7.344968408E0,-7.283194922E-3,-4.779753089E-1,-1.570247114E-1
7.355039209E0,-1.543033984E-3,-4.661478698E-1,-1.760237068E-1
7.365079492E0,3.233315190E-3,-4.585676789E-1,-1.980038136E-1
7.375180811E0,4.114410840E-3,-4.571832120E-1,-1.957201660E-1
7.385251611E0,4.011586774E-3,-4.590888023E-1,-1.750103235E-1
7.395627588E0,9.737355867E-4,-4.584445059E-1,-1.562989801E-1
7.415464014E0,-1.191754453E-2,-4.505863488E-1,-1.394530982E-1
7.425534815E0,-1.592887193E-2,-4.424647987E-1,-1.383906752E-1
7.435605615E0,-1.993229985E-2,-4.319194257E-1,-1.363905221E-1
7.445676416E0,-2.296558022E-2,-4.180319905E-1,-1.373390555E-1
7.455747217E0,-2.403408661E-2,-4.047218859E-1,-1.460936815E-1
7.465818018E0,-2.702236921E-2,-3.910326362E-1,-1.548666060E-1
7.475888818E0,-2.899732627E-2,-3.798846900E-1,-1.578144729E-1
7.485959619E0,-2.995734476E-2,-3.712447584E-1,-1.617457867E-1
7.496030420E0,-3.086571768E-2,-3.602328897E-1,-1.647135913E-1
7.506101221E0,-3.268017620E-2,-3.487736285E-1,-1.667104363E-1
7.516172022E0,-3.246772289E-2,-3.368427157E-1,-1.599534601E-1
7.526242822E0,-3.216133267E-2,-3.244423866E-1,-1.522213519E-1
7.536313623E0,-3.078393638E-2,-3.115486503E-1,-1.483756602E-1
7.546384424E0,-2.737557702E-2,-2.991289496E-1,-1.600914598E-1
7.556485742E0,-2.196503431E-2,-2.891191840E-1,-1.766654849E-1
7.566678613E0,-1.846299507E-2,-2.805157602E-1,-1.805893183E-1
7.576993555E0,-1.591037400E-2,-2.732929885E-1,-1.825645268E-1
7.587003320E0,-1.432863250E-2,-2.664578259E-1,-1.767552644E-1
7.597196191E0,-1.177762263E-2,-2.590160072E-1,-1.728879660E-1
7.616880029E0,-2.821604023E-3,-2.413808852E-1,-1.748723239E-1
7.626920313E0,3.573273309E-3,-2.322250009E-1,-1.787687242E-1
7.636991113E0,8.967708796E-3,-2.225776315E-1,-1.797297299E-1
7.647092432E0,1.527955756E-2,-2.144292444E-1,-1.738622785E-1
7.657163232E0,2.151492611E-2,-2.077676505E-1,-1.650569290E-1
7.667203516E0,2.376026846E-2,-2.026085258E-1,-1.630393118E-1
7.677304834E0,2.589582652E-2,-1.950189620E-1,-1.648973078E-1
7.687345117E0,2.888624184E-2,-1.879113764E-1,-1.745181829E-1
7.697476953E0,3.176094592E-2,-1.822125763E-1,-1.831489503E-1
7.707639307E0,3.453215212E-2,-1.749794632E-1,-1.859255433E-1
7.717832178E0,3.819390759E-2,-1.710740179E-1,-1.847933084E-1
7.727994531E0,4.270859808E-2,-1.675587893E-1,-1.836419255E-1
7.738187402E0,4.704169556E-2,-1.634546667E-1,-1.834523678E-1
7.758634180E0,4.909131676E-2,-1.582518518E-1,-1.850027889E-1
7.778012842E0,4.709911346E-2,-1.503893286E-1,-1.816874892E-1
7.788083643E0,4.625979066E-2,-1.468638033E-1,-1.795393676E-1
7.798154443E0,4.624248669E-2,-1.435525417E-1,-1.783613861E-1
7.808225244E0,4.417458177E-2,-1.404379159E-1,-1.791236848E-1
7.818296045E0,4.106528684E-2,-1.365468204E-1,-1.789033860E-1
7.828366846E0,3.888291493E-2,-1.347871125E-1,-1.747817099E-1
7.838407129E0,3.763708100E-2,-1.351289898E-1,-1.706517041E-1
7.848508447E0,3.734616935E-2,-1.356654018E-1,-1.713741273E-1
7.858548731E0,3.800353408E-2,-1.372942775E-1,-1.730625480E-1
7.868619531E0,3.961686790E-2,-1.371094137E-1,-1.747418046E-1
7.878690332E0,3.926704079E-2,-1.370367706E-1,-1.705793887E-1
7.888761133E0,3.599740565E-2,-1.360941529E-1,-1.664094925E-1
7.898831934E0,3.274699673E-2,-1.371702999E-1,-1.583448499E-1
7.908902734E0,3.244870901E-2,-1.392852813E-1,-1.541633010E-1
7.918973535E0,3.219011426E-2,-1.414483786E-1,-1.597073823E-1
7.929074854E0,3.391614184E-2,-1.407236755E-1,-1.691395491E-1
7.939420313E0,3.567796946E-2,-1.409861743E-1,-1.678692847E-1
7.959256738E0,3.249811754E-2,-1.405556500E-1,-1.585185975E-1
7.969358057E0,2.853921801E-2,-1.379154772E-1,-1.708686948E-1
7.979428857E0,2.560948767E-2,-1.323772222E-1,-1.841872782E-1
7.989469141E0,2.371932752E-2,-1.269051582E-1,-1.799849421E-1
7.999570459E0,1.995110884E-2,-1.166494787E-1,-1.670155227E-1
8.009610742E0,1.625547744E-2,-1.065239981E-1,-1.433287263E-1
8.019712061E0,1.359109487E-2,-9.942598641E-2,-1.361669004E-1
8.029782861E0,1.293128729E-2,-9.634833038E-2,-1.426104605E-1
8.039853662E0,1.330023725E-2,-9.338238835E-2,-1.675226241E-1
8.049924463E0,1.859060302E-2,-9.248924255E-2,-1.933924854E-1
8.060086816E0,2.199101262E-2,-9.266485274E-2,-2.143841386E-1
8.070249170E0,2.253126539E-2,-9.586066008E-2,-2.275805175E-1
8.080411523E0,2.117896825E-2,-9.914623946E-2,-2.281167209E-1
8.090604395E0,1.792767644E-2,-1.015265137E-1,-2.189156711E-1
8.100797266E0,1.568705961E-2,-1.000804380E-1,-2.145695090E-1
8.121244043E0,1.716228947E-2,-9.262235463E-2,-2.155687809E-1
8.140561670E0,2.656587027E-2,-8.668558300E-2,-1.980162710E-1
8.150632471E0,3.130122647E-2,-8.881002665E-2,-2.062397003E-1
8.160703272E0,3.410080075E-2,-9.204209596E-2,-2.212574780E-1
8.170774072E0,3.689751774E-2,-9.442786872E-2,-2.245860994E-1
8.180844873E0,3.967641294E-2,-9.691861272E-2,-2.220696956E-1
8.190915674E0,3.950333968E-2,-9.852846712E-2,-2.039784938E-1
8.201078027E0,3.733661026E-2,-9.826389700E-2,-1.897779107E-1
8.211209863E0,3.705271333E-2,-9.514249861E-2,-1.784935594E-1
8.221402734E0,3.669716790E-2,-8.916416019E-2,-1.662349105E-1
8.231565088E0,3.627184406E-2,-8.228769153E-2,-1.559198946E-1
8.241727441E0,3.869451955E-2,-7.839129865E-2,-1.465775222E-1
8.261411279E0,4.330211133E-2,-7.749679685E-2,-1.531989872E-1
8.271482080E0,4.645567015E-2,-7.856452465E-2,-1.701354682E-1
8.281552881E0,4.658613726E-2,-8.346100152E-2,-1.822228581E-1
8.291593164E0,4.470854998E-2,-8.738233149E-2,-1.768051535E-1
8.301969141E0,4.277390987E-2,-9.124111384E-2,-1.675084978E-1
8.321836084E0,3.977362439E-2,-9.689148515E-2,-1.508887410E-1
8.331906885E0,3.675754368E-2,-9.672294557E-2,-1.513492912E-1
8.341977686E0,3.469067439E-2,-9.557498991E-2,-1.518139988E-1
8.352048486E0,3.551726788E-2,-9.538805485E-2,-1.522845328E-1
8.362058252E0,3.632182628E-2,-9.421496093E-2,-1.556771547E-1
8.372190088E0,3.516571969E-2,-9.495441616E-2,-1.649131179E-1
8.382260889E0,3.401465341E-2,-9.761920571E-2,-1.770711690E-1
8.392331690E0,3.383685648E-2,-1.021544784E-1,-1.941049099E-1
8.402402490E0,3.383685648E-2,-1.021544784E-1,-1.941049099E-1
8.412473291E0,2.772821300E-2,-1.110501215E-1,-2.067858875E-1
8.422544092E0,2.279001661E-2,-1.114906222E-1,-1.907621771E-1
8.432614893E0,1.985555887E-2,-1.079868078E-1,-1.747418046E-1
8.442685693E0,1.698843949E-2,-1.035022512E-1,-1.616368890E-1
8.452756494E0,1.710539684E-2,-9.998088330E-2,-1.679848284E-1
8.462796777E0,1.826342568E-2,-9.840003401E-2,-1.821147949E-1
8.472898096E0,2.046268247E-2,-9.681387246E-2,-1.923483312E-1
8.483243555E0,2.272652276E-2,-9.424778819E-2,-1.986879706E-1
8.503110498E0,2.839264274E-2,-9.394997358E-2,-1.928762197E-1
8.513181299E0,2.691227011E-2,-9.327609092E-2,-1.894852817E-1
8.523221582E0,2.547439933E-2,-9.065805376E-2,-1.860918254E-1
8.533292383E0,2.504772320E-2,-8.612943441E-2,-1.817190796E-1
8.543363184E0,2.465258725E-2,-7.873483747E-2,-1.744209230E-1
8.553464502E0,2.428826317E-2,-6.952755898E-2,-1.680762768E-1
8.563626856E0,2.492043003E-2,-6.145730615E-2,-1.626826823E-1
8.573789209E0,2.556490898E-2,-5.547554046E-2,-1.592160761E-1
8.583951563E0,2.523612231E-2,-4.863419384E-2,-1.625463516E-1
8.594144434E0,2.782635950E-2,-4.491040483E-2,-1.707157195E-1
8.613889307E0,3.199854866E-2,-3.894994408E-2,-1.860194951E-1
8.623960107E0,3.356802836E-2,-3.576079011E-2,-1.902326196E-1
8.634030908E0,3.316062689E-2,-3.273977339E-2,-1.915095448E-1
8.644101709E0,3.368846700E-2,-2.891570143E-2,-1.917938441E-1
8.654203027E0,3.126215562E-2,-2.235128544E-2,-1.940034926E-1
8.665372461E0,2.881900780E-2,-1.699135080E-2,-1.942387521E-1
8.684506982E0,2.580126375E-2,-4.804614000E-3,-1.936801076E-1
8.704618066E0,2.272392623E-2,3.644611221E-3,-1.998285502E-1
8.714780420E0,2.315096371E-2,7.886940613E-3,-2.077036500E-1
8.724973291E0,2.452809736E-2,1.183155552E-2,-2.155421525E-1
8.735135645E0,2.496802248E-2,1.549487002E-2,-2.213929892E-1
8.745328516E0,2.538461611E-2,1.789198257E-2,-2.242893279E-1
8.764920801E0,2.054093219E-2,2.012126893E-2,-2.095558345E-1
8.775022119E0,1.816013455E-2,2.286410518E-2,-2.006831467E-1
8.785092920E0,1.583181508E-2,2.549128607E-2,-1.966570765E-1
8.795163721E0,1.350941788E-2,2.786054835E-2,-1.984327734E-1
8.805234522E0,1.317860372E-2,3.012329713E-2,-2.040832490E-1
8.815305322E0,1.385332458E-2,3.220731020E-2,-2.126258910E-1
8.825376123E0,1.456742827E-2,3.514010459E-2,-2.153118998E-1
8.835446924E0,1.337287389E-2,3.697992116E-2,-2.131163776E-1
8.845822900E0,1.123752445E-2,3.772062808E-2,-2.060360163E-1
8.865659326E0,1.190377586E-2,3.109282441E-2,-2.025303543E-1
8.875730127E0,1.372628845E-2,2.859159000E-2,-2.031887472E-1
8.885800928E0,1.363063511E-2,2.702486329E-2,-1.921637803E-1
8.895871729E0,1.259688847E-2,2.347242646E-2,-1.830782741E-1
8.905973047E0,1.063445304E-2,2.283688076E-2,-1.788535267E-1
8.916013330E0,9.695840999E-3,2.409009635E-2,-1.901835799E-1
8.926084131E0,8.808666840E-3,2.633850649E-2,-2.005401552E-1
8.936154932E0,6.023848895E-3,3.150640428E-2,-1.953286231E-1
8.946225732E0,3.284753300E-3,3.857491165E-2,-1.813516468E-1
8.956327051E0,1.561166951E-3,4.268932343E-2,-1.634757519E-1
8.966367334E0,-1.089860569E-3,4.092848301E-2,-1.601845622E-1
8.976468652E0,-2.729379572E-3,3.337095305E-2,-1.637068689E-1
8.986508936E0,5.281999474E-4,2.587369271E-2,-1.876646876E-1
8.996579736E0,4.784402438E-3,1.843670383E-2,-2.087120414E-1
9.006650537E0,8.082404733E-3,1.207097527E-2,-2.180943191E-1
9.016721338E0,7.507755421E-3,8.683864959E-3,-2.148372084E-1
9.027066797E0,4.030602984E-3,7.319980767E-3,-2.018594742E-1
9.046933740E0,-3.829527646E-3,1.259855181E-2,-1.924688816E-1
9.057096094E0,-4.302704707E-3,1.917761751E-2,-2.028553784E-1
9.067258447E0,-2.788662910E-3,2.479048260E-2,-2.064308971E-1
9.077451318E0,-1.248590765E-3,2.654768713E-2,-1.993056685E-1
9.097287744E0,4.792663734E-3,2.333712764E-2,-2.093862295E-1
9.107358545E0,9.277687408E-3,2.123877220E-2,-2.226964980E-1
9.117398828E0,1.276034676E-2,2.017582580E-2,-2.272612900E-1
9.127469629E0,1.428800169E-2,2.200296335E-2,-2.191766948E-1
9.137540430E0,1.385732647E-2,2.767620422E-2,-1.974667609E-1
9.147611231E0,9.522355162E-3,3.523040935E-2,-1.864509583E-1
9.157682031E0,7.117450237E-3,4.368326813E-2,-1.851590872E-1
9.167783350E0,4.696334712E-3,5.301109329E-2,-1.828837544E-1
9.177854150E0,5.178708117E-3,6.027860194E-2,-1.874044836E-1
9.187924951E0,6.619697902E-3,6.453007460E-2,-1.948348135E-1
9.198117822E0,7.077079266E-3,6.384392083E-2,-2.003140301E-1
9.208951563E0,8.497285657E-3,6.307360530E-2,-2.048081458E-1
9.228635400E0,1.031787694E-2,5.739527196E-2,-2.118319869E-1
9.248349756E0,5.264489911E-3,5.232774839E-2,-1.964425892E-1
9.258390039E0,1.751175732E-3,5.208074674E-2,-1.843560338E-1
9.268491357E0,-2.732704859E-3,5.368394777E-2,-1.819859445E-1
9.278562158E0,-4.290494602E-3,5.809461698E-2,-1.873878539E-1
9.288602441E0,-3.891409142E-3,6.335895509E-2,-1.927747875E-1
9.298703760E0,-4.453225527E-3,6.850316375E-2,-1.962031722E-1
9.308744043E0,-3.057075432E-3,7.257205993E-2,-1.986464113E-1
9.318845361E0,-5.534876604E-3,7.556771487E-2,-2.010771930E-1
9.328916162E0,-7.989972830E-3,7.651885599E-2,-2.054416239E-1
9.338956445E0,-1.041425765E-2,8.030188084E-2,-2.127140015E-1
9.349057764E0,-1.279479545E-2,8.396675438E-2,-2.189971358E-1
9.359098047E0,-1.317003183E-2,9.038797021E-2,-2.223415375E-1
9.369199365E0,-1.445078477E-2,1.014978439E-1,-2.207952738E-1
9.379239648E0,-1.759639569E-2,1.153116748E-1,-2.163028270E-1
9.389585107E0,-2.065835521E-2,1.250278354E-1,-2.147008628E-1
9.409452051E0,-2.166560292E-2,1.409406513E-1,-2.347631305E-1
9.419522852E0,-2.059600689E-2,1.481350958E-1,-2.389222085E-1
9.429593652E0,-1.849032380E-2,1.541691422E-1,-2.411102504E-1
9.439664453E0,-2.021754719E-2,1.609525979E-1,-2.364631593E-1
9.449765772E0,-2.286062576E-2,1.674908251E-1,-2.317878306E-1
9.459836572E0,-2.447936311E-2,1.747636199E-1,-2.241671085E-1
9.469907373E0,-2.603938617E-2,1.827078313E-1,-2.155404985E-1
9.479947656E0,-2.462806366E-2,1.903311461E-1,-2.117430419E-1
9.490048975E0,-2.413841709E-2,1.975904256E-1,-2.137440145E-1
9.500089258E0,-2.360668406E-2,2.025305033E-1,-2.137622982E-1
9.510160059E0,-2.109630592E-2,2.041735947E-1,-2.166627944E-1
9.520169824E0,-2.051115967E-2,2.074198574E-1,-2.166129053E-1
9.530332178E0,-1.893949695E-2,2.093674392E-1,-2.155629545E-1
9.540402979E0,-1.639326662E-2,2.119952887E-1,-2.144905478E-1
9.550534815E0,-1.385020651E-2,2.163050473E-1,-2.104819119E-1
9.560697168E0,-1.228909194E-2,2.193609923E-1,-2.054798752E-1
9.571042627E0,-1.269061957E-2,2.240881771E-1,-2.033816278E-1
9.581082910E0,-1.214340422E-2,2.295016795E-1,-2.041846812E-1
9.591245264E0,-9.683371522E-3,2.355962992E-1,-2.088641673E-1
9.610929102E0,-1.976879081E-3,2.536862791E-1,-2.142885476E-1
9.620969385E0,3.343465214E-4,2.608560920E-1,-2.160143554E-1
9.631040186E0,4.523419775E-3,2.677530646E-1,-2.216224521E-1
9.641110986E0,7.662120741E-3,2.734268308E-1,-2.282015085E-1
9.651181787E0,1.363666169E-2,2.788605094E-1,-2.269969285E-1
9.661252588E0,1.855220459E-2,2.801787555E-1,-2.160642445E-1
9.671292871E0,2.046361752E-2,2.812855542E-1,-2.041630596E-1
9.681394190E0,2.131702006E-2,2.822002769E-1,-1.951856464E-1
9.691495508E0,2.131702006E-2,2.822002769E-1,-1.951856464E-1
9.701688379E0,2.277157083E-2,2.864425778E-1,-2.044989020E-1
9.711881250E0,2.434822172E-2,2.888115942E-1,-2.159810960E-1
9.722043604E0,2.779965475E-2,2.900604606E-1,-2.313663512E-1
9.732205957E0,3.021338955E-2,2.902292609E-1,-2.292547822E-1
9.752652734E0,3.093175590E-2,2.921762168E-1,-2.134023458E-1
9.772061914E0,3.225599602E-2,3.024143577E-1,-2.365371436E-1
9.782102197E0,3.518650308E-2,3.097354472E-1,-2.452111393E-1
9.792172998E0,3.897264972E-2,3.149361610E-1,-2.354148626E-1
9.802243799E0,3.874912485E-2,3.170521855E-1,-2.188283652E-1
9.812345117E0,3.646507114E-2,3.160693049E-1,-2.061515749E-1
9.822385400E0,3.699031100E-2,3.129931390E-1,-2.129509449E-1
9.832456201E0,3.839113936E-2,3.107696176E-1,-2.295033634E-1
9.842527002E0,4.262619466E-2,3.094172478E-1,-2.431586087E-1
9.852597803E0,4.580833018E-2,3.080140650E-1,-2.441911101E-1
9.862668604E0,4.794165120E-2,3.065815568E-1,-2.306597233E-1
9.872739404E0,4.805320501E-2,3.060947955E-1,-2.113174051E-1
9.882810205E0,4.614377022E-2,3.046439886E-1,-1.997886449E-1
9.892881006E0,4.902917519E-2,3.041949868E-1,-2.048297673E-1
9.902951807E0,5.185129866E-2,3.066786826E-1,-2.196280956E-1
9.913022607E0,5.559166893E-2,3.072116077E-1,-2.276436985E-1
9.923062891E0,5.831044912E-2,3.048287630E-1,-2.240108252E-1
9.933408350E0,6.097618118E-2,3.034383357E-1,-2.126258910E-1
9.953305811E0,6.127228588E-2,3.036088943E-1,-2.132868022E-1
9.963346094E0,6.280545145E-2,3.061377704E-1,-2.194967419E-1
9.973416895E0,6.428499520E-2,3.115682900E-1,-2.189214677E-1
9.983487695E0,6.473545730E-2,3.159902692E-1,-2.066977620E-1
9.993558496E0,6.513117254E-2,3.184210956E-1,-1.935279816E-1
1.000362930E1,6.254961342E-2,3.188560605E-1,-1.901137531E-1
1.001406631E1,6.088598445E-2,3.163529634E-1,-1.964550614E-1
1.003378066E1,6.422009319E-2,3.075329363E-1,-2.257615775E-1
1.004394302E1,6.630826741E-2,2.993569374E-1,-2.360840887E-1
1.005410537E1,6.834505498E-2,2.893618345E-1,-2.415707856E-1
1.006429824E1,6.740935147E-2,2.795160115E-1,-2.305516601E-1
1.007446060E1,6.447640061E-2,2.707985938E-1,-2.156718522E-1
1.008462295E1,6.052913517E-2,2.641985118E-1,-2.017954439E-1
1.010433731E1,5.161385611E-2,2.554095089E-1,-1.955289692E-1
1.011520156E1,4.960434884E-2,2.512524128E-1,-1.972955316E-1
1.013451919E1,4.276949167E-2,2.463469207E-1,-2.125643790E-1
1.014458999E1,4.276949167E-2,2.463469207E-1,-2.125643790E-1
1.015466079E1,4.004057869E-2,2.372010499E-1,-2.210962027E-1
1.016473159E1,4.024124146E-2,2.309588343E-1,-2.141970992E-1
1.017480239E1,3.857777268E-2,2.239497453E-1,-2.092582136E-1
1.018490371E1,3.505364805E-2,2.190843225E-1,-2.082240582E-1
1.019512710E1,3.161748871E-2,2.154069841E-1,-2.052570730E-1
1.020525894E1,2.730226517E-2,2.139103562E-1,-1.954907328E-1
1.021545181E1,2.502585016E-2,2.165302038E-1,-1.818421036E-1
1.022564468E1,2.381804585E-2,2.183958292E-1,-1.759862900E-1
1.024532852E1,2.945262939E-2,2.218261063E-1,-1.944582164E-1
1.025539932E1,3.238630667E-2,2.243386209E-1,-2.119766176E-1
1.026543960E1,3.344088793E-2,2.260532826E-1,-2.158821672E-1
1.027554092E1,3.358091414E-2,2.269364744E-1,-2.110414058E-1
1.028558120E1,3.377206624E-2,2.269655168E-1,-2.013415694E-1
1.029586563E1,3.303873539E-2,2.280584127E-1,-1.965165734E-1
1.031582412E1,3.170711547E-2,2.342500240E-1,-2.131546289E-1
1.032586440E1,3.013186902E-2,2.392666340E-1,-2.200271338E-1
1.033587417E1,2.957348339E-2,2.422941625E-1,-2.230140716E-1
1.034606704E1,3.001979738E-2,2.433259934E-1,-2.240665257E-1
1.035613784E1,3.147486970E-2,2.404167354E-1,-2.251264602E-1
1.036620864E1,3.393427655E-2,2.365164012E-1,-2.271690220E-1
1.037627944E1,3.641186655E-2,2.326197326E-1,-2.292207032E-1
1.038635024E1,3.695201874E-2,2.267892361E-1,-2.293387502E-1
1.039642104E1,3.457714617E-2,2.229340225E-1,-2.333590239E-1
1.040649185E1,3.220169991E-2,2.181398422E-1,-2.325268686E-1
1.041656265E1,3.079115786E-2,2.124131471E-1,-2.317055166E-1
1.042663345E1,3.034375235E-2,2.096376866E-1,-2.279778868E-1
1.043670425E1,3.085543029E-2,2.059362680E-1,-2.271814793E-1
1.044677505E1,3.037648648E-2,2.042219192E-1,-2.302872986E-1
1.045687637E1,2.988211066E-2,2.015973777E-1,-2.304868102E-1
1.046688613E1,3.034905344E-2,1.990574896E-1,-2.277783751E-1
1.047723159E1,3.178136796E-2,1.966153234E-1,-2.250798941E-1
1.049709854E1,3.753051534E-2,1.881915033E-1,-2.099831253E-1
1.050716934E1,3.794731945E-2,1.841715872E-1,-1.936917454E-1
1.051727065E1,3.737043217E-2,1.812656373E-1,-1.851914972E-1
1.052734146E1,3.677307814E-2,1.794611216E-1,-1.932411790E-1
1.053753433E1,3.422118723E-2,1.797404587E-1,-2.051872462E-1
1.054769668E1,3.166607395E-2,1.791672558E-1,-2.083844990E-1
1.055788955E1,3.008718789E-2,1.797068715E-1,-2.008843273E-1
1.056808242E1,2.754230797E-2,1.803878844E-1,-1.836618632E-1
1.058776626E1,2.055334859E-2,1.764388680E-1,-1.803507209E-1
1.059783706E1,1.903541014E-2,1.737451553E-1,-1.952371746E-1
1.060787734E1,1.949133724E-2,1.712354869E-1,-2.091501504E-1
1.061794815E1,1.900610700E-2,1.679092199E-1,-2.104154229E-1
1.062804946E1,1.758049615E-2,1.627653688E-1,-2.000047863E-1
1.063812026E1,1.618611254E-2,1.577731818E-1,-1.876488775E-1
1.064816055E1,1.384397224E-2,1.519412696E-1,-1.830758005E-1
1.065902481E1,1.250185817E-2,1.472129822E-1,-1.921222210E-1
1.067867813E1,1.573647186E-2,1.419885010E-1,-2.131321579E-1
1.068871841E1,1.447400916E-2,1.366163045E-1,-2.056386471E-1
1.069891128E1,1.420762297E-2,1.333452463E-1,-1.961956918E-1
1.070910415E1,1.299077831E-2,1.321406364E-1,-2.003730834E-1
1.072875747E1,1.258478314E-2,1.271879673E-1,-2.213688940E-1
1.073882827E1,1.438526623E-2,1.273334026E-1,-2.206730694E-1
1.074889907E1,1.623282209E-2,1.275644153E-1,-2.073270530E-1
1.075893936E1,1.618881524E-2,1.269278675E-1,-1.949495375E-1
1.076904067E1,1.717210934E-2,1.254256964E-1,-1.854849458E-1
1.077914199E1,1.917554066E-2,1.240171716E-1,-1.799093038E-1
1.078921279E1,2.218637243E-2,1.227339357E-1,-1.879489869E-1
1.079925308E1,2.327810414E-2,1.205986664E-1,-1.979314834E-1
1.080932388E1,2.535894886E-2,1.166425720E-1,-2.088816315E-1
1.081939468E1,2.646818943E-2,1.128407270E-1,-2.139925808E-1
1.082943496E1,2.756402828E-2,1.091968939E-1,-2.191010416E-1
1.083981094E1,2.571875602E-2,1.037733704E-1,-2.096123546E-1
1.085967788E1,1.906170137E-2,9.150189161E-2,-1.896523535E-1
1.086977920E1,1.815119758E-2,8.562824875E-2,-1.927997321E-1
1.087981948E1,2.111906186E-2,7.894531637E-2,-2.017788291E-1
1.088992080E1,2.406515554E-2,7.341823727E-2,-2.126998901E-1
1.089996108E1,2.406011708E-2,6.905099750E-2,-2.216698378E-1
1.091009292E1,2.304419130E-2,6.392934173E-2,-2.238237858E-1
1.092013320E1,2.296126634E-2,5.703572556E-2,-2.220838070E-1
1.093020400E1,1.992616989E-2,5.133889616E-2,-2.261739075E-1
1.094024429E1,1.784038730E-2,4.482810199E-2,-2.360957265E-1
1.095031509E1,1.477645338E-2,3.952422738E-2,-2.411443293E-1
1.096041641E1,1.268937346E-2,3.638100624E-2,-2.335352600E-1
1.097045669E1,1.061070897E-2,3.346883878E-2,-2.171582580E-1
1.098055801E1,1.061070897E-2,3.346883878E-2,-2.171582580E-1
1.099062881E1,7.460369729E-3,2.237378433E-2,-1.921571344E-1
1.100069961E1,8.337568492E-3,1.812870055E-2,-2.039593756E-1
1.101080093E1,1.214937866E-2,1.217670832E-2,-2.167234570E-1
1.102123794E1,1.598462090E-2,5.490193609E-3,-2.265530080E-1
1.104125747E1,1.498745289E-2,-7.216429804E-3,-2.160118520E-1
1.105141982E1,1.308212057E-2,-1.427838951E-2,-2.092640400E-1
1.106161270E1,1.413327176E-2,-2.204109915E-2,-2.083354592E-1
1.108126602E1,1.633289270E-2,-3.256592155E-2,-2.219765782E-1
1.109133682E1,1.647873782E-2,-3.622700274E-2,-2.307062745E-1
1.110140762E1,1.566497795E-2,-4.246533290E-2,-2.316348553E-1
1.111147842E1,1.583025604E-2,-5.034437776E-2,-2.276827693E-1
1.112151870E1,1.502429135E-2,-6.281521916E-2,-2.256618291E-1
1.113158950E1,1.423027646E-2,-7.786169648E-2,-2.314045727E-1
1.114169082E1,1.344530284E-2,-9.257341176E-2,-2.322650105E-1
1.115176162E1,1.072782185E-2,-1.088519841E-1,-2.321303189E-1
1.116189346E1,8.026083000E-3,-1.237750351E-1,-2.290569246E-1
1.117211685E1,3.399838926E-3,-1.421456188E-1,-2.249867916E-1
1.118227920E1,1.713038771E-3,-1.620036215E-1,-2.218643576E-1
1.119241104E1,-9.235445759E-4,-1.823189557E-1,-2.187144756E-1
1.120330581E1,-2.559582470E-3,-2.010694742E-1,-2.165064961E-1
1.121365127E1,-6.112020463E-3,-2.182207555E-1,-2.084302306E-1
1.123235854E1,-1.506871544E-2,-2.487212121E-1,-2.087245136E-1
1.124236831E1,-1.754131913E-2,-2.620414495E-1,-2.200155109E-1
1.125246963E1,-1.704943925E-2,-2.727725506E-1,-2.283569574E-1
1.126250991E1,-1.747055538E-2,-2.799700201E-1,-2.220788300E-1
1.127261123E1,-2.171319537E-2,-2.865686119E-1,-2.099357396E-1
1.128268203E1,-2.490167134E-2,-2.964633703E-1,-2.055505365E-1
1.129275283E1,-2.896843664E-2,-3.057738543E-1,-2.186538130E-1
1.130282363E1,-3.195615113E-2,-3.125692606E-1,-2.404909134E-1
1.131289443E1,-3.482425585E-2,-3.168655932E-1,-2.525758147E-1
1.132296523E1,-3.464562446E-2,-3.186729550E-1,-2.539416552E-1
1.133306655E1,-3.530870751E-2,-3.218916059E-1,-2.494508773E-1
1.134313735E1,-3.778796643E-2,-3.284860849E-1,-2.498108298E-1
1.135317764E1,-3.721928969E-2,-3.393919170E-1,-2.637778521E-1
1.136324844E1,-3.653236106E-2,-3.565776944E-1,-2.933005095E-1
1.137331924E1,-3.379211947E-2,-3.780635893E-1,-3.247618079E-1
1.138372573E1,-3.193261474E-2,-4.009041190E-1,-3.348149955E-1
1.140350112E1,-2.993526123E-2,-4.466548860E-1,-2.731958926E-1
1.141354141E1,-3.178313002E-2,-4.685304761E-1,-2.316930592E-1
1.142364272E1,-3.069223277E-2,-4.858481884E-1,-2.028487325E-1
1.143371352E1,-2.763894945E-2,-4.995906055E-1,-2.022344023E-1
1.144378433E1,-2.555607632E-2,-5.088244081E-1,-2.133158743E-1
1.145385513E1,-2.444657683E-2,-5.174758434E-1,-2.156685293E-1
1.146392593E1,-2.236396447E-2,-5.274992585E-1,-2.054025382E-1
1.147399673E1,-2.029465139E-2,-5.379463434E-1,-1.941988617E-1
1.148409805E1,-2.116483636E-2,-5.449497700E-1,-1.859529912E-1
1.149416885E1,-2.108253725E-2,-5.495230556E-1,-1.796964854E-1
1.150423965E1,-2.005008794E-2,-5.487732887E-1,-1.686207950E-1
1.151440200E1,-2.001449838E-2,-5.456572771E-1,-1.498130113E-1
1.152456436E1,-1.806157082E-2,-5.411947370E-1,-1.281396598E-1
1.153475723E1,-1.712254249E-2,-5.364065170E-1,-1.172252670E-1
1.154491958E1,-1.720692217E-2,-5.342447758E-1,-1.073433682E-1
1.156551894E1,-1.465767901E-2,-5.358784199E-1,-1.305812448E-1
1.158480606E1,-1.444028877E-2,-5.469615459E-1,-1.657735258E-1
1.159487686E1,-1.592892222E-2,-5.587796569E-1,-1.863994151E-1
1.160494766E1,-1.846974902E-2,-5.741029382E-1,-1.925104409E-1
1.161507949E1,-2.205372602E-2,-5.861310363E-1,-1.860535741E-1
1.162508926E1,-2.861169726E-2,-5.919799209E-1,-1.670288146E-1
1.163519058E1,-3.812241554E-2,-5.946182609E-1,-1.519769430E-1
1.164529190E1,-5.055392161E-2,-5.970287919E-1,-1.447876841E-1
1.165542373E1,-5.904674158E-2,-5.963612199E-1,-1.532380581E-1
1.166561660E1,-6.550610065E-2,-5.956035852E-1,-1.666231304E-1
1.167580947E1,-6.891762465E-2,-5.938327909E-1,-1.742371917E-1
1.168594131E1,-7.118546963E-2,-5.891480446E-1,-1.731573045E-1
1.170565566E1,-7.512099296E-2,-5.769859552E-1,-1.565783024E-1
1.171569595E1,-7.870792598E-2,-5.705516934E-1,-1.537202150E-1
1.172579727E1,-8.206667006E-2,-5.642300248E-1,-1.577238590E-1
1.173586807E1,-8.521908522E-2,-5.561050177E-1,-1.627500206E-1
1.174627456E1,-8.622778952E-2,-5.481335521E-1,-1.639363021E-1
1.176608047E1,-8.867461979E-2,-5.268028378E-1,-1.421349347E-1
1.177615127E1,-8.528387547E-2,-5.182975531E-1,-1.347162426E-1
1.178622207E1,-7.788164169E-2,-5.089558363E-1,-1.361053735E-1
1.179629287E1,-6.456068158E-2,-4.988005757E-1,-1.424117684E-1
1.180636367E1,-5.408624932E-2,-4.897921681E-1,-1.439064890E-1
1.181640396E1,-4.843301699E-2,-4.809887707E-1,-1.405870169E-1
1.182650527E1,-4.373382404E-2,-4.743650258E-1,-1.295321286E-1
1.183657607E1,-4.195391759E-2,-4.670611024E-1,-1.175478175E-1
1.184664688E1,-4.311527312E-2,-4.552691579E-1,-1.104633138E-1
1.185671768E1,-4.138986394E-2,-4.410102963E-1,-1.141111478E-1
1.186675796E1,-3.971018270E-2,-4.253177643E-1,-1.206951961E-1
1.187685928E1,-3.615275770E-2,-4.091995955E-1,-1.253489256E-1
1.188693008E1,-3.268620372E-2,-3.936616182E-1,-1.251485795E-1
1.189700088E1,-2.837892994E-2,-3.787153065E-1,-1.239822358E-1
1.190707168E1,-2.713802643E-2,-3.663097322E-1,-1.237918660E-1
1.191711196E1,-2.411669865E-2,-3.564524651E-1,-1.236031502E-1
1.192748794E1,-2.125643753E-2,-3.471696377E-1,-1.234127879E-1
1.194731810E1,-1.991681755E-2,-3.292759955E-1,-1.269159615E-1
1.195738890E1,-1.852030307E-2,-3.196653128E-1,-1.315796673E-1
1.196745970E1,-1.631481200E-2,-3.086485565E-1,-1.391496807E-1
1.197756102E1,-1.135765016E-2,-2.971948385E-1,-1.505994499E-1
1.198757078E1,-4.619385581E-3,-2.872589827E-1,-1.620284319E-1
1.199767210E1,9.300392776E-6,-2.768810987E-1,-1.656588018E-1
1.200786497E1,3.498818260E-3,-2.670407891E-1,-1.673214436E-1
1.201799681E1,1.976931002E-3,-2.596541941E-1,-1.660428792E-1
1.202815916E1,1.292962465E-3,-2.547232211E-1,-1.657103449E-1
1.203829100E1,2.433897229E-3,-2.502726316E-1,-1.663246900E-1
1.205803587E1,6.346037611E-3,-2.359573096E-1,-1.655232906E-1
1.206810667E1,1.303244848E-2,-2.280429453E-1,-1.602111757E-1
1.207817747E1,1.866713539E-2,-2.206158042E-1,-1.548599601E-1
1.208818724E1,2.422591299E-2,-2.126977146E-1,-1.553072035E-1
1.209831907E1,2.873504348E-2,-2.052437663E-1,-1.625263989E-1
1.210948851E1,3.122308291E-2,-1.972579062E-1,-1.687346846E-1
1.212853148E1,3.009082563E-2,-1.815591604E-1,-1.654800773E-1
1.213860228E1,2.741444111E-2,-1.747702807E-1,-1.560221463E-1
1.214873411E1,2.753228135E-2,-1.673776656E-1,-1.572375298E-1
1.215886595E1,2.850019746E-2,-1.593682021E-1,-1.642580330E-1
1.216905882E1,3.226244077E-2,-1.507571787E-1,-1.800032258E-1
1.217919066E1,3.783934936E-2,-1.405848414E-1,-1.752838194E-1
1.218941405E1,4.036427662E-2,-1.298264116E-1,-1.666364372E-1
1.220909788E1,4.210599512E-2,-1.114772186E-1,-1.200334653E-1
1.221916868E1,4.329093918E-2,-1.048292443E-1,-1.346148103E-1
1.222923948E1,4.438365996E-2,-1.014540866E-1,-1.559697688E-1
1.223931028E1,4.539552703E-2,-9.938171506E-2,-1.947998852E-1
1.224938109E1,4.730606079E-2,-9.954631329E-2,-2.199789286E-1
1.225945189E1,5.011519417E-2,-1.009858474E-1,-2.266377956E-1
1.226952269E1,5.283740535E-2,-1.055880338E-1,-2.284085006E-1
1.227959349E1,5.450471863E-2,-1.094627157E-1,-2.311260849E-1
1.228984739E1,5.510888249E-2,-1.125632301E-1,-2.396620810E-1
1.230983641E1,5.219577625E-2,-1.134672910E-1,-2.226291597E-1
1.231987669E1,4.872668162E-2,-1.102785543E-1,-2.019243091E-1
1.232994749E1,4.622898251E-2,-1.082397327E-1,-1.899516433E-1
1.234001829E1,4.471982270E-2,-1.082932577E-1,-1.944981217E-1
1.235008909E1,4.617296904E-2,-1.094962731E-1,-2.184758931E-1
1.236019041E1,4.958273098E-2,-1.088397428E-1,-2.307669520E-1
1.237026121E1,5.204084143E-2,-1.092770174E-1,-2.420687526E-1
1.238030150E1,5.158699304E-2,-1.107942760E-1,-2.251405865E-1
1.239040281E1,5.012464896E-2,-1.103868261E-1,-1.907031536E-1
1.240047362E1,4.765869305E-2,-1.071117371E-1,-1.689092666E-1
1.241051390E1,4.515133053E-2,-1.028780416E-1,-1.587904394E-1
1.242058470E1,4.262094945E-2,-9.865503013E-2,-1.525663435E-1
1.243068602E1,4.107173160E-2,-9.543876350E-2,-1.453662813E-1
1.244078734E1,4.050892591E-2,-9.125077724E-2,-1.401098520E-1
1.245085814E1,3.900969401E-2,-8.903022110E-2,-1.406867802E-1
1.246092894E1,3.851266578E-2,-9.067322314E-2,-1.509959847E-1
1.247133543E1,3.707193956E-2,-9.032708406E-2,-1.603383571E-1
1.249114134E1,3.431351483E-2,-9.052555263E-2,-1.586000621E-1
1.250127318E1,3.396737203E-2,-9.204219282E-2,-1.553013921E-1
1.251143553E1,3.270605206E-2,-9.260489047E-2,-1.539446712E-1
1.252162840E1,2.952718921E-2,-9.311989695E-2,-1.555117220E-1
1.253179075E1,2.835668996E-2,-9.368748218E-2,-1.560952961E-1
1.254192259E1,2.918073535E-2,-9.039181471E-2,-1.595909894E-1
1.256166746E1,2.807471715E-2,-9.174946696E-2,-1.723866761E-1
1.257167723E1,2.808479778E-2,-9.442849457E-2,-1.797455251E-1
1.258168699E1,2.813670039E-2,-9.712655097E-2,-1.890446842E-1
1.259184935E1,2.822274342E-2,-9.983197600E-2,-1.944499165E-1
1.260188963E1,2.735920995E-2,-1.015392020E-1,-1.940209568E-1
1.261199095E1,2.749975584E-2,-9.742031991E-2,-1.848340333E-1
1.262206175E1,2.766165510E-2,-8.941865712E-2,-1.707797348E-1
1.263213255E1,3.076959774E-2,-8.440423757E-2,-1.625529975E-1
1.264223387E1,3.389873728E-2,-8.043603599E-2,-1.640410572E-1
1.265309813E1,3.704008833E-2,-7.752048969E-2,-1.733011305E-1
1.267275145E1,4.136783630E-2,-7.195708901E-2,-1.869189739E-1
1.268291380E1,4.252757877E-2,-6.831943989E-2,-1.893364638E-1
1.270262816E1,3.794654086E-2,-6.223012507E-2,-1.883081198E-1
1.271269896E1,3.708144650E-2,-5.688484013E-2,-1.829136759E-1
1.272276976E1,3.619848192E-2,-5.163754895E-2,-1.755589992E-1
1.273284056E1,3.725456819E-2,-4.361977801E-2,-1.662365645E-1
1.274291136E1,3.829252347E-2,-3.672013432E-2,-1.656496525E-1
1.275298216E1,3.930444643E-2,-3.289263323E-2,-1.660137773E-1
1.276305296E1,4.221728817E-2,-3.116244823E-2,-1.712236553E-1
1.277312376E1,4.313989729E-2,-3.057501651E-2,-1.764094383E-1
1.278319456E1,4.399434105E-2,-3.303052858E-2,-1.796366125E-1
1.279326536E1,4.382672533E-2,-3.659387678E-2,-1.818728745E-1
1.280333616E1,4.361785576E-2,-3.833528236E-2,-1.860377789E-1
1.281340696E1,4.336674511E-2,-4.115408286E-2,-1.882449538E-1
1.282344725E1,4.210781679E-2,-4.212215543E-2,-1.894686371E-1
1.283379271E1,4.179700464E-2,-4.318312928E-2,-1.897055805E-1
1.285365965E1,4.595027864E-2,-4.556600377E-2,-1.901453435E-1
1.286376097E1,4.652181268E-2,-4.590227455E-2,-1.903515011E-1
1.287383177E1,4.516551271E-2,-4.632073641E-2,-1.905435324E-1
1.288387205E1,4.382475093E-2,-4.680206999E-2,-1.907231063E-1
1.289394285E1,4.248097166E-2,-4.732486978E-2,-1.908976883E-1
1.290404417E1,4.211202264E-2,-4.690505192E-2,-1.891211569E-1
1.291411497E1,4.267217591E-2,-4.649219662E-2,-1.873462945E-1
1.292418577E1,4.233268648E-2,-4.610781744E-2,-1.855647564E-1
1.293425657E1,4.393162578E-2,-4.474455491E-2,-1.847550571E-1
1.294432738E1,4.262510315E-2,-4.337744787E-2,-1.839453578E-1
1.295439818E1,4.035767540E-2,-4.200265184E-2,-1.782724112E-1
1.296446898E1,3.808396682E-2,-4.158387333E-2,-1.755207628E-1
1.297453978E1,3.678450733E-2,-3.919569775E-2,-1.756936759E-1
1.298461058E1,3.743247315E-2,-3.774639592E-2,-1.758690774E-1
1.299468138E1,3.712680191E-2,-3.529504314E-2,-1.741041839E-1
1.300487425E1,3.684202582E-2,-3.184662387E-2,-1.703948379E-1
1.301521971E1,3.658660129E-2,-2.935796231E-2,-1.686316133E-1
1.303539183E1,4.096874967E-2,-2.729815990E-2,-1.709410101E-1
1.305510618E1,4.460967332E-2,-2.640106156E-2,-1.761201322E-1
1.306517698E1,4.636879638E-2,-2.598945610E-2,-1.821156144E-1
1.307527830E1,4.505832493E-2,-2.362860925E-2,-1.793664545E-1
1.308534910E1,4.282124341E-2,-2.132242359E-2,-1.727133840E-1
1.309541990E1,3.961894661E-2,-2.001475729E-2,-1.718937010E-1
1.310549071E1,3.939864784E-2,-1.875738613E-2,-1.846818924E-1
1.311556150E1,3.826924786E-2,-1.660541072E-2,-1.974518001E-1
1.312560179E1,3.609087691E-2,-9.682696313E-3,-1.936742961E-1
1.313570311E1,3.103665821E-2,9.764893330E-4,-1.801395565E-1
1.314586546E1,2.605866082E-2,1.047993265E-2,-1.597614139E-1
1.315605833E1,2.019224502E-2,1.493383292E-2,-1.539396942E-1
1.316622068E1,1.536476891E-2,1.531395409E-2,-1.665666103E-1
1.317638304E1,1.253885124E-2,1.454248931E-2,-1.859737784E-1
1.319686033E1,1.193863992E-2,1.058935467E-2,-2.285880595E-1
1.321623900E1,5.779388826E-3,1.110498141E-2,-2.253933102E-1
1.322630980E1,-6.037981366E-4,1.464941725E-2,-2.174442261E-1
1.323638060E1,-4.974671174E-3,2.003502101E-2,-2.114213109E-1
1.324645140E1,-6.351232994E-3,2.918743901E-2,-2.053709626E-1
1.325652220E1,-4.728496540E-3,3.916525468E-2,-1.954009384E-1
1.326659300E1,-3.989037126E-3,4.803055525E-2,-1.902658939E-1
1.327666380E1,-3.150754841E-3,5.380032957E-2,-1.987145692E-1
1.328673460E1,-2.196399495E-3,5.257891491E-2,-2.168564945E-1
1.329680540E1,-1.431948767E-4,5.017764866E-2,-2.339825034E-1
1.330687620E1,4.953004885E-3,4.660161957E-2,-2.403662205E-1
1.331691649E1,7.241680752E-3,4.479702935E-2,-2.369835675E-1
1.332701780E1,7.677396294E-3,4.769636318E-2,-2.189788371E-1
1.333708861E1,6.235939451E-3,5.239685252E-2,-1.931622028E-1
1.334715941E1,2.904528286E-3,5.985857546E-2,-1.741282940E-1
1.335723021E1,5.902891862E-4,6.717076153E-2,-1.550694406E-1
1.336730101E1,-7.101551746E-4,7.432177663E-2,-1.486308724E-1
1.337764647E1,-1.002883771E-3,7.841155678E-2,-1.480048895E-1
1.339748289E1,1.398539986E-3,8.040558547E-2,-1.671310812E-1
1.340758421E1,2.120645484E-3,7.640017569E-2,-1.946735382E-1
1.341762449E1,8.917985833E-4,7.327587157E-2,-2.153925300E-1
1.342769530E1,-2.288104501E-3,6.911438704E-2,-2.117846012E-1
1.343779661E1,-6.438833661E-3,6.488120556E-2,-1.877345145E-1
1.344786741E1,-1.155259460E-2,6.545325369E-2,-1.568667591E-1
1.345790770E1,-1.567147486E-2,6.690286845E-2,-1.454444230E-1
1.346797850E1,-1.880253665E-2,7.315284014E-2,-1.573597342E-1
1.347804930E1,-2.191889472E-2,7.933048159E-2,-1.751042753E-1
1.348815062E1,-2.404733561E-2,8.641987294E-2,-1.899217218E-1
1.349831297E1,-2.614595182E-2,9.245380014E-2,-2.047275156E-1
1.350844481E1,-3.014169075E-2,9.743600339E-2,-2.185465544E-1
1.351863768E1,-3.406728804E-2,1.004076675E-1,-2.304069996E-1
1.352883055E1,-3.984615579E-2,1.052443907E-1,-2.325227112E-1
1.353899290E1,-4.453563318E-2,1.099591181E-1,-2.297477573E-1
1.355940916E1,-4.714519531E-2,1.174403727E-1,-2.220804989E-1
1.357878782E1,-4.338077456E-2,1.511875987E-1,-2.017497420E-1
1.358885862E1,-4.057532549E-2,1.625851989E-1,-2.153168768E-1
1.359892943E1,-3.574702144E-2,1.746978611E-1,-2.385772020E-1
1.360900023E1,-3.378172964E-2,1.845980287E-1,-2.481781244E-1
1.361907103E1,-3.274694458E-2,1.951911300E-1,-2.489853352E-1
1.362917234E1,-3.167293221E-2,2.045055628E-1,-2.478056997E-1
1.363930418E1,-2.959473431E-2,2.144730836E-1,-2.417212576E-1
1.364946654E1,-2.749081701E-2,2.240680754E-1,-2.336441725E-1
1.365965941E1,-2.538217418E-2,2.361959070E-1,-2.226000726E-1
1.366979124E1,-2.230842039E-2,2.488524318E-1,-2.144223750E-1
1.368956663E1,-1.331353839E-2,2.716687322E-1,-2.173502743E-1
1.369963743E1,-9.356142953E-3,2.768870592E-1,-2.303945273E-1
1.370967772E1,-3.506559879E-3,2.805943191E-1,-2.443565577E-1
1.371974852E1,-6.400125567E-4,2.818555236E-1,-2.524311841E-1
1.372984984E1,-7.659055409E-4,2.807452977E-1,-2.507427335E-1
1.374019530E1,-9.831917705E-4,2.792766690E-1,-2.441653311E-1
1.376006224E1,-1.713610371E-3,2.802682221E-1,-2.416614145E-1
1.377013304E1,6.838646368E-4,2.817875445E-1,-2.486619502E-1
1.378020384E1,3.944301978E-3,2.839976251E-1,-2.478697002E-1
1.379027464E1,5.153872538E-3,2.849530280E-1,-2.460981607E-1
1.380034544E1,5.284025799E-3,2.846809924E-1,-2.375122905E-1
1.381041624E1,4.342296161E-3,2.851604521E-1,-2.415749431E-1
1.382051756E1,4.288520198E-3,2.835243046E-1,-2.514818013E-1
1.383055784E1,6.109734531E-3,2.836838663E-1,-2.672353089E-1
1.384062864E1,9.809887968E-3,2.827773094E-1,-2.742500007E-1
1.385069944E1,1.344561484E-2,2.827641070E-1,-2.676617801E-1
1.386080076E1,1.507011801E-2,2.817276716E-1,-2.523380518E-1
1.387084105E1,1.176510099E-2,2.796862423E-1,-2.360649556E-1
1.388091185E1,7.426701486E-3,2.766684294E-1,-2.266286463E-1
1.389098265E1,4.005871713E-3,2.736608982E-1,-2.298682928E-1
1.390108397E1,1.507910551E-3,2.687632740E-1,-2.418950200E-1
1.391112425E1,-5.850414891E-5,2.668607533E-1,-2.471456379E-1
1.392150023E1,-3.600343131E-3,2.650637627E-1,-2.368655354E-1
1.394133665E1,-1.269186754E-2,2.647807896E-1,-2.203048021E-1
1.395140745E1,-1.434629783E-2,2.653227448E-1,-2.305607945E-1
1.396147825E1,-1.308289915E-2,2.659738362E-1,-2.418235093E-1
1.397154905E1,-1.374426577E-2,2.638103366E-1,-2.385190129E-1
1.398168089E1,-1.630239375E-2,2.597893476E-1,-2.196738422E-1
1.399184324E1,-2.169849165E-2,2.558585405E-1,-1.998800933E-1
1.400258543E1,-2.892339043E-2,2.491158992E-1,-1.878874600E-1
1.402181150E1,-3.611841425E-2,2.370182276E-1,-1.950983405E-1
1.403182127E1,-3.509230167E-2,2.316987216E-1,-2.065165192E-1
1.404198362E1,-3.197017685E-2,2.265472859E-1,-2.160110325E-1
1.405205443E1,-2.677396126E-2,2.206131220E-1,-2.128844410E-1
1.406212523E1,-2.343158796E-2,2.129224837E-1,-2.019991279E-1
1.407219603E1,-1.905744150E-2,2.083472311E-1,-1.950334907E-1
1.408226683E1,-1.270714216E-2,2.049484402E-1,-2.036659271E-1
1.409233763E1,-5.372561514E-3,2.036807388E-1,-2.132984400E-1
1.410304930E1,-1.932975021E-3,2.026112378E-1,-2.180992961E-1
1.412261107E1,5.836802069E-3,2.038772404E-1,-2.093014419E-1
1.413277342E1,9.156989865E-3,2.071496397E-1,-2.073769420E-1
1.414296629E1,1.337682270E-2,2.114874125E-1,-2.122875452E-1
1.415315916E1,2.043000236E-2,2.168558538E-1,-2.211128473E-1
1.417284300E1,3.325669840E-2,2.325403690E-1,-2.320205867E-1
1.418297484E1,3.609919176E-2,2.408542484E-1,-2.331270874E-1
1.419307615E1,3.785909340E-2,2.471948564E-1,-2.274408489E-1
1.420311644E1,3.563318402E-2,2.515631318E-1,-2.237181962E-1
1.421321776E1,3.625407442E-2,2.549397647E-1,-2.229317725E-1
1.422328856E1,3.678933904E-2,2.534365058E-1,-2.221636176E-1
1.423335936E1,3.624607250E-2,2.470546663E-1,-2.194685042E-1
1.424339964E1,3.848502785E-2,2.407083362E-1,-2.206896842E-1
1.425347044E1,4.055880383E-2,2.353604138E-1,-2.209640294E-1
1.426354124E1,4.340882972E-2,2.290692031E-1,-2.300220877E-1
1.427361204E1,4.312332347E-2,2.257300764E-1,-2.264640331E-1
1.428383543E1,4.262240231E-2,2.234017551E-1,-2.190445215E-1
1.430385496E1,4.396098107E-2,2.167937458E-1,-2.013623416E-1
1.431392576E1,4.196706042E-2,2.144293487E-1,-1.969338953E-1
1.432402708E1,3.792591020E-2,2.120354474E-1,-1.954400241E-1
1.433409788E1,3.285304084E-2,2.105635107E-1,-1.998011321E-1
1.434413817E1,3.067420237E-2,2.090493739E-1,-2.041730285E-1
1.435420897E1,3.044055030E-2,2.113862634E-1,-2.075822800E-1
1.436431028E1,3.119461052E-2,2.117570192E-1,-2.100313455E-1
1.437435057E1,3.099685721E-2,2.111383826E-1,-2.144373357E-1
1.439449217E1,3.263980523E-2,2.148278952E-1,-2.252287120E-1
1.440456297E1,3.254238889E-2,2.172160298E-1,-2.189697027E-1
1.441463377E1,3.054436110E-2,2.167661488E-1,-2.117496878E-1
1.442470457E1,3.053692915E-2,2.154546082E-1,-2.064907551E-1
1.443477537E1,3.155280650E-2,2.152450383E-1,-2.138928324E-1
1.444487669E1,3.358699381E-2,2.161425203E-1,-2.242278010E-1
1.445494749E1,3.274148703E-2,2.171647996E-1,-2.258214355E-1
1.446535399E1,3.290411457E-2,2.183006555E-1,-2.254822552E-1
1.448549559E1,3.621760011E-2,2.198324203E-1,-2.199764252E-1
1.449568846E1,3.740711510E-2,2.201692015E-1,-2.157815993E-1
1.451537230E1,4.077619314E-2,2.208424062E-1,-2.132618576E-1
1.452544310E1,4.003018886E-2,2.211617827E-1,-2.139626592E-1
1.453551390E1,3.928304091E-2,2.214421332E-1,-2.107828557E-1
1.454561522E1,3.950417414E-2,2.197562158E-1,-2.066412121E-1
1.455565550E1,4.068594426E-2,2.170570344E-1,-2.112658620E-1
1.456572630E1,3.894215077E-2,2.153202742E-1,-2.168756127E-1
1.457579710E1,3.912966326E-2,2.116301805E-1,-2.205525339E-1
1.458586790E1,3.832624480E-2,2.079379261E-1,-2.193762064E-1
1.459599974E1,3.944618627E-2,2.033206373E-1,-2.172413915E-1
1.460619261E1,4.248185828E-2,1.977842599E-1,-2.131753862E-1
1.461638548E1,4.256981984E-2,1.913542151E-1,-2.130166143E-1
1.462654783E1,4.067560658E-2,1.840583384E-1,-2.109275013E-1
1.463762571E1,3.972005472E-2,1.768942624E-1,-2.146908939E-1
1.465727904E1,3.675712645E-2,1.640257984E-1,-2.271291167E-1
1.467653563E1,3.470309079E-2,1.586860716E-1,-2.201634794E-1
1.468657591E1,3.464198858E-2,1.562633365E-1,-2.064840943E-1
1.469664671E1,3.166887909E-2,1.540181041E-1,-2.025444657E-1
1.470674803E1,2.968436107E-2,1.529229283E-1,-2.102882117E-1
1.471681883E1,2.772696503E-2,1.529610902E-1,-2.131762207E-1
1.472685911E1,2.774702199E-2,1.521853060E-1,-2.063419521E-1
1.473692991E1,2.488660626E-2,1.525516659E-1,-1.936767846E-1
1.474697020E1,2.012895979E-2,1.530660689E-1,-1.849088520E-1
1.475710203E1,1.542945579E-2,1.527523100E-1,-1.848997176E-1
1.476711180E1,1.273862924E-2,1.506389678E-1,-1.917040646E-1
1.477718260E1,1.108534075E-2,1.477093846E-1,-2.043484300E-1
1.478722288E1,1.144525036E-2,1.459227651E-1,-2.150500119E-1
1.479729368E1,1.186922379E-2,1.433255225E-1,-2.169986367E-1
1.480736448E1,1.137786172E-2,1.408714354E-1,-2.082448304E-1
1.481743528E1,9.963734075E-3,1.385696083E-1,-2.033866048E-1
1.482759764E1,6.646455731E-3,1.344615668E-1,-1.985300332E-1
1.484758665E1,6.973891985E-3,1.363928467E-1,-2.092532218E-1
1.485759642E1,8.687242866E-3,1.423267722E-1,-2.121828049E-1
1.486775877E1,1.047005970E-2,1.483067870E-1,-2.083013803E-1
1.487782957E1,1.232317649E-2,1.542563885E-1,-2.073386908E-1
1.488790037E1,1.521611866E-2,1.611232460E-1,-2.122119069E-1
1.489800169E1,1.913464814E-2,1.688654125E-1,-2.190311998E-1
1.490804197E1,2.017572150E-2,1.774533689E-1,-2.190445215E-1
1.491814329E1,1.929847151E-2,1.878207773E-1,-2.180868387E-1
1.492821409E1,1.941397414E-2,1.989639103E-1,-2.181076258E-1
1.493831541E1,2.051287331E-2,2.098936290E-1,-2.191060334E-1
1.494847777E1,2.064635232E-2,2.205745727E-1,-2.181658000E-1
1.495867064E1,2.078055963E-2,2.309997082E-1,-2.172347456E-1
1.496883299E1,2.285761386E-2,2.382297516E-1,-2.192290574E-1
1.497899534E1,2.687408403E-2,2.442277968E-1,-2.183162868E-1
1.499870970E1,3.293190897E-2,2.428755164E-1,-2.184675783E-1
1.500951292E1,3.497877717E-2,2.394741476E-1,-2.243973911E-1
1.502892210E1,3.804489598E-2,2.312529236E-1,-2.392090112E-1
1.503902342E1,3.513542935E-2,2.255004495E-1,-2.325301915E-1
1.504906370E1,3.021167591E-2,2.215767801E-1,-2.268406302E-1
1.505913450E1,2.812880464E-2,2.194897979E-1,-2.270052433E-1
1.506920530E1,2.985098958E-2,2.163194716E-1,-2.291350663E-1
1.507933714E1,3.148458153E-2,2.140025496E-1,-2.322550267E-1
1.508949949E1,3.497540206E-2,2.125456482E-1,-2.285847366E-1
1.509966185E1,3.740748018E-2,2.109886110E-1,-2.210413367E-1
1.510985472E1,4.073198140E-2,2.064393610E-1,-2.203288972E-1
1.512001707E1,4.398020729E-2,2.028411031E-1,-2.206048965E-1
1.513970091E1,5.025771633E-2,1.994976252E-1,-2.182896733E-1
1.514977171E1,5.232442915E-2,1.978763342E-1,-2.176412642E-1
1.515984251E1,5.335183069E-2,1.972930282E-1,-2.208991945E-1
1.516991331E1,5.334398896E-2,1.987579912E-1,-2.105492502E-1
1.518001463E1,5.229917541E-2,1.993726492E-1,-2.060476542E-1
1.519029905E1,5.312534794E-2,1.981713623E-1,-1.976687759E-1
1.521022703E1,6.232687086E-2,1.885612011E-1,-1.965057552E-1
1.522032835E1,6.388772279E-2,1.841065288E-1,-1.930175573E-1
1.523039915E1,6.342893839E-2,1.798843741E-1,-1.963478029E-1
1.524050047E1,6.290884316E-2,1.758917123E-1,-1.996822357E-1
1.525054075E1,6.233502552E-2,1.711361408E-1,-1.991294175E-1
1.526061155E1,5.977747217E-2,1.665816158E-1,-1.966354549E-1
1.527068236E1,5.719383061E-2,1.622093916E-1,-1.853885204E-1
1.528078367E1,5.167448893E-2,1.570253372E-1,-1.819269210E-1
1.529085447E1,4.614782333E-2,1.510259360E-1,-1.901411861E-1
1.530089476E1,4.061840102E-2,1.442029327E-1,-2.022485286E-1
1.531096556E1,3.704372421E-2,1.365576386E-1,-1.997620463E-1
1.532106688E1,3.348853439E-2,1.271409988E-1,-1.933808476E-1
1.533110716E1,3.093664162E-2,1.159873828E-1,-1.860228181E-1
1.534114744E1,2.647894435E-2,1.050626114E-1,-1.786573231E-1
1.536131956E1,1.287434064E-2,8.397121727E-2,-1.794603765E-1
1.537169554E1,4.750162829E-3,7.484187186E-2,-1.798377931E-1
1.539153196E1,-6.282908842E-3,4.881474748E-2,-1.795618087E-1
1.540160277E1,-1.016740780E-2,3.005756997E-2,-1.759829670E-1
1.541167357E1,-1.299529895E-2,1.175772306E-2,-1.840526015E-1
1.542174437E1,-1.179554872E-2,-7.017328404E-3,-1.959828734E-1
1.543190672E1,-1.331660338E-2,-2.532112598E-2,-2.049594671E-1
1.544206907E1,-1.556309033E-2,-4.320736602E-2,-2.031945735E-1
1.545226195E1,-1.948021725E-2,-5.875741690E-2,-1.936069429E-1
1.546242430E1,-2.216070704E-2,-7.095713913E-2,-1.907896101E-1
1.548216917E1,-3.070215695E-2,-9.412925690E-2,-2.054225057E-1
1.549223997E1,-3.368212655E-2,-1.039158404E-1,-2.053526789E-1
1.550231077E1,-3.358439356E-2,-1.148167327E-1,-2.062039524E-1
1.551238157E1,-2.946696989E-2,-1.249847636E-1,-2.118727118E-1
1.552245238E1,-2.330065332E-2,-1.335172206E-1,-2.145844847E-1
1.553252318E1,-1.802837104E-2,-1.404688209E-1,-2.221253961E-1
1.554259398E1,-1.366575807E-2,-1.487925947E-1,-2.296338677E-1
1.555342772E1,-9.250721894E-3,-1.575223207E-1,-2.332243323E-1
1.557308104E1,-1.101234090E-2,-1.723961085E-1,-2.218369097E-1
1.559325316E1,-1.558189932E-2,-1.832697392E-1,-2.181442082E-1
1.560341551E1,-1.395723969E-2,-1.884642094E-1,-2.264840007E-1
1.561357786E1,-1.039825473E-2,-1.941504329E-1,-2.328618765E-1
1.563323118E1,-4.810745013E-4,-2.070728987E-1,-2.290461212E-1
1.564330198E1,1.954329433E-3,-2.143523395E-1,-2.315068394E-1
1.565337278E1,1.401189948E-3,-2.231817842E-1,-2.407743931E-1
1.566344359E1,-1.928662532E-4,-2.335785925E-1,-2.451745719E-1
1.567351439E1,-5.741408095E-3,-2.436128259E-1,-2.447106838E-1
1.568358519E1,-1.037399098E-2,-2.494413555E-1,-2.384117693E-1
1.569365599E1,-1.504980214E-2,-2.578606009E-1,-2.272488028E-1
1.570369627E1,-2.073410898E-2,-2.679361701E-1,-2.190071046E-1
1.571376707E1,-2.741002478E-2,-2.815583646E-1,-2.166037709E-1
1.572383787E1,-3.019743972E-2,-2.987027764E-1,-2.200371176E-1
1.573418333E1,-3.103208542E-2,-3.173923790E-1,-2.293079942E-1
1.575405028E1,-2.972722612E-2,-3.611215353E-1,-2.342219204E-1
1.576412108E1,-3.146494552E-2,-3.831667304E-1,-2.201368809E-1
1.577422239E1,-3.510820493E-2,-4.075248837E-1,-2.128611654E-1
1.578429320E1,-4.161484167E-2,-4.321954548E-1,-2.153127193E-1
1.579436400E1,-4.901660234E-2,-4.532604218E-1,-2.041414529E-1
1.580443480E1,-5.826067552E-2,-4.707108736E-1,-1.929709911E-1
1.581447508E1,-6.834869087E-2,-4.854936004E-1,-1.701254845E-1
1.582457640E1,-7.244730741E-2,-4.995749593E-1,-1.472833157E-1
1.583461668E1,-7.248903066E-2,-5.100167394E-1,-1.409860551E-1
1.584471800E1,-7.430619001E-2,-5.178173780E-1,-1.541566700E-1
1.585478880E1,-7.595137507E-2,-5.210664272E-1,-1.692858636E-1
1.586482908E1,-7.450679690E-2,-5.178636312E-1,-1.883255839E-1
1.587493040E1,-7.288926095E-2,-5.131266713E-1,-2.034971714E-1
1.588497068E1,-7.208137214E-2,-5.059294105E-1,-2.031297237E-1
1.589510252E1,-7.403336465E-2,-5.002248883E-1,-1.862531006E-1
1.590514280E1,-7.680368423E-2,-4.989723265E-1,-1.606575847E-1
1.591551878E1,-7.942941040E-2,-4.983136356E-1,-1.467745304E-1
1.593553831E1,-8.526231349E-2,-4.939805269E-1,-1.561069340E-1
1.594573118E1,-8.557493985E-2,-4.913164675E-1,-1.627899110E-1
1.595589354E1,-8.384402841E-2,-4.893484712E-1,-1.811986715E-1
1.597566893E1,-7.435341924E-2,-4.876392484E-1,-2.298591584E-1
1.598570921E1,-7.149180770E-2,-4.879981577E-1,-2.357922941E-1
1.599584105E1,-7.345648110E-2,-4.901960194E-1,-2.301110625E-1
1.600588133E1,-7.537365705E-2,-4.933155775E-1,-2.060035914E-1
1.601592161E1,-7.723103464E-2,-4.973996580E-1,-1.819535196E-1
1.602599241E1,-7.902595401E-2,-5.024963021E-1,-1.676888913E-1
1.603606321E1,-8.077380806E-2,-5.037841201E-1,-1.680712998E-1
1.604613402E1,-8.054561168E-2,-5.003408790E-1,-1.704555154E-1
1.605620482E1,-7.932850718E-2,-4.951232970E-1,-1.787296534E-1
1.606636717E1,-7.811680436E-2,-4.891406298E-1,-1.880279779E-1
1.607656004E1,-7.595027983E-2,-4.833941162E-1,-1.895941645E-1
1.608666136E1,-7.381290197E-2,-4.788666070E-1,-1.756437868E-1
1.609752562E1,-6.977024674E-2,-4.736037254E-1,-1.568767428E-1
1.611662962E1,-6.476398557E-2,-4.608284533E-1,-1.438083798E-1
1.612666990E1,-6.282939762E-2,-4.522964358E-1,-1.436679065E-1
1.613677122E1,-6.192622334E-2,-4.410322011E-1,-1.474645436E-1
1.614684202E1,-6.108586490E-2,-4.299684167E-1,-1.542240083E-1
1.615691282E1,-6.031320244E-2,-4.200983644E-1,-1.629719883E-1
1.616695311E1,-5.766934901E-2,-4.114323556E-1,-1.688394397E-1
1.617708494E1,-5.413005129E-2,-4.030078053E-1,-1.640443802E-1
1.618712523E1,-5.164612085E-2,-3.938606381E-1,-1.495569646E-1
1.619719603E1,-4.924692959E-2,-3.840098083E-1,-1.341301650E-1
1.620726683E1,-4.693498090E-2,-3.754144311E-1,-1.226255223E-1
1.621733763E1,-4.567900673E-2,-3.680793047E-1,-1.325514913E-1
1.622740843E1,-4.449469224E-2,-3.610635996E-1,-1.512578577E-1
1.623747923E1,-4.435414448E-2,-3.553523123E-1,-1.787412912E-1
1.624751951E1,-4.719647765E-2,-3.499967456E-1,-1.935928166E-1
1.625762083E1,-5.106591061E-2,-3.430766463E-1,-1.958091259E-1
1.626766112E1,-5.108461529E-2,-3.355914354E-1,-1.844117343E-1
1.627803709E1,-4.919533804E-2,-3.295138478E-1,-1.642605215E-1
1.629787352E1,-4.263279587E-2,-3.166466355E-1,-1.453637928E-1
1.630794432E1,-3.798540309E-2,-3.088643253E-1,-1.544010639E-1
1.631801512E1,-2.952962928E-2,-3.024456799E-1,-1.731664538E-1
1.632811644E1,-2.603392862E-2,-2.983523607E-1,-1.890122592E-1
1.633815672E1,-2.652560361E-2,-2.956127524E-1,-1.941547990E-1
1.634825804E1,-3.002281114E-2,-2.912891507E-1,-1.924813390E-1
1.635832884E1,-3.456680849E-2,-2.834301293E-1,-1.869123280E-1
1.636836912E1,-4.013867676E-2,-2.740044296E-1,-1.852239221E-1
1.638851072E1,-4.357109219E-2,-2.523634136E-1,-1.438657492E-1
1.639861204E1,-3.655698523E-2,-2.440245301E-1,-1.217044219E-1
1.640871336E1,-2.665684745E-2,-2.379886359E-1,-1.150937602E-1
1.641887571E1,-1.875265688E-2,-2.323060334E-1,-1.347361952E-1
1.642906859E1,-1.383030787E-2,-2.269434035E-1,-1.660387218E-1
1.643926146E1,-1.189967152E-2,-2.189903706E-1,-1.934365332E-1
1.644939329E1,-1.295799296E-2,-2.113404572E-1,-1.857958734E-1
1.645976927E1,-1.797376201E-2,-2.040055096E-1,-1.684104651E-1
1.647917845E1,-3.301987797E-2,-1.999521106E-1,-1.073234156E-1
1.648921873E1,-3.621292487E-2,-2.031735778E-1,-1.142150536E-1
1.649928953E1,-3.165651113E-2,-2.095396221E-1,-1.434708685E-1
1.650929930E1,-2.130673267E-2,-2.141394019E-1,-1.766106188E-1
1.651943113E1,-1.393006649E-2,-2.189025730E-1,-2.019633800E-1
1.652953245E1,-6.616060622E-3,-2.238013446E-1,-2.088284194E-1
1.653960325E1,-3.263450693E-3,-2.278452814E-1,-2.020731121E-1
1.654973509E1,-4.841919523E-3,-2.290466577E-1,-1.943509877E-1
1.655989744E1,-1.036889851E-2,-2.303141057E-1,-1.914962381E-1
1.657005980E1,-1.690369844E-2,-2.296760529E-1,-1.896216124E-1
1.658022215E1,-1.956594735E-2,-2.281187922E-1,-1.789948344E-1
1.659041502E1,-2.029013261E-2,-2.266404927E-1,-1.683680713E-1
1.661009886E1,-1.301956270E-2,-2.278295904E-1,-1.772723496E-1
1.662013914E1,-7.003663573E-3,-2.255853415E-1,-2.055663168E-1
1.663024046E1,-2.989011351E-3,-2.233459651E-1,-2.163601816E-1
1.664070799E1,-1.951835584E-3,-2.162737250E-1,-2.184044123E-1
1.666045286E1,-1.169475075E-2,-1.974658370E-1,-1.660736352E-1
1.667052366E1,-1.660281233E-2,-1.906033009E-1,-1.428282559E-1
1.668062498E1,-1.859252527E-2,-1.876932532E-1,-1.244477779E-1
1.669066526E1,-1.862338744E-2,-1.877589375E-1,-1.187141612E-1
1.670073607E1,-1.571937837E-2,-1.907763183E-1,-1.314674467E-1
1.671080687E1,-1.086181961E-2,-1.957489401E-1,-1.597946733E-1
1.672087767E1,-5.037747324E-3,-2.007047683E-1,-1.852122843E-1
1.673094847E1,-4.103966989E-3,-2.066018432E-1,-2.028603852E-1
1.674104979E1,-7.099628914E-3,-2.134627253E-1,-1.923067719E-1
1.675109007E1,-1.207237784E-2,-2.163923830E-1,-1.691212505E-1
1.676116087E1,-1.803985238E-2,-2.173684686E-1,-1.410808265E-1
1.677123167E1,-2.206946909E-2,-2.154400051E-1,-1.188845858E-1
1.678133299E1,-2.414480783E-2,-2.144918889E-1,-1.112863198E-1
1.679137327E1,-2.328241616E-2,-2.135883570E-1,-1.153664365E-1
1.680144407E1,-1.948193274E-2,-2.137201130E-1,-1.281986982E-1
1.681151488E1,-1.468880195E-2,-2.139118463E-1,-1.439497173E-1
1.682189085E1,-1.280222461E-2,-2.122048289E-1,-1.596990675E-1
1.684172728E1,-1.775335893E-2,-2.118876725E-1,-1.746578366E-1
1.685182860E1,-2.457584627E-2,-2.132496983E-1,-1.719228029E-1
1.686186888E1,-2.941043861E-2,-2.126591355E-1,-1.623834074E-1
1.687193968E1,-3.224420175E-2,-2.101220638E-1,-1.450661719E-1
1.688201048E1,-3.403647617E-2,-2.056185007E-1,-1.267829537E-1
1.689205076E1,-3.284265101E-2,-2.001277357E-1,-1.162900403E-1
1.690221312E1,-2.963879332E-2,-1.945971549E-1,-1.184531301E-1
1.691240599E1,-2.639176138E-2,-1.900527477E-1,-1.352141947E-1
1.692256834E1,-2.311288007E-2,-1.855215281E-1,-1.539255530E-1
1.693276121E1,-2.273052186E-2,-1.800419986E-1,-1.638822705E-1
1.694292357E1,-2.233632095E-2,-1.756034791E-1,-1.650810391E-1
1.696257689E1,-2.441280335E-2,-1.640304625E-1,-1.538432539E-1
1.697264769E1,-2.298579179E-2,-1.579550654E-1,-1.365285218E-1
1.698271849E1,-2.056664973E-2,-1.501066685E-1,-1.240570620E-1
1.699278929E1,-1.814340428E-2,-1.415128112E-1,-1.203127950E-1
1.700395872E1,-1.476808917E-2,-1.341463774E-1,-1.223736331E-1
1.701415159E1,-1.240074914E-2,-1.280114353E-1,-1.321832091E-1
1.703331663E1,-7.800743449E-3,-1.233196780E-1,-1.526769102E-1
1.705339720E1,-3.402125090E-3,-1.254201084E-1,-1.594247371E-1
1.706355955E1,6.703556865E-4,-1.291815192E-1,-1.583872437E-1
1.707375242E1,3.721352201E-3,-1.330732405E-1,-1.553861797E-1
1.708394530E1,4.767049104E-3,-1.351532042E-1,-1.484804004E-1
1.710356810E1,6.637155544E-3,-1.348450929E-1,-1.424076259E-1
1.711363890E1,8.417894132E-3,-1.334320605E-1,-1.451858878E-1
1.712370970E1,1.108170394E-2,-1.302178651E-1,-1.547585428E-1
1.713378050E1,1.366643421E-2,-1.271283627E-1,-1.672349870E-1
1.714385130E1,1.715912111E-2,-1.232109815E-1,-1.835845560E-1
1.715392210E1,2.253708616E-2,-1.184530258E-1,-1.970003992E-1
1.716396238E1,2.490957081E-2,-1.119114757E-1,-1.967734396E-1
1.717406370E1,2.619354427E-2,-1.045606285E-1,-1.926359832E-1
1.718440916E1,2.830987424E-2,-9.929993004E-2,-1.836178005E-1
1.720427610E1,2.914254740E-2,-8.827704191E-2,-1.703964919E-1
1.721431639E1,2.981087565E-2,-8.157712221E-2,-1.652132124E-1
1.722441771E1,3.132206202E-2,-7.701930404E-2,-1.609759778E-1
1.723445799E1,3.562907502E-2,-7.162196189E-2,-1.567237675E-1
1.724455931E1,4.079090059E-2,-6.730201095E-2,-1.641349941E-1
1.725463011E1,4.196155444E-2,-6.409196556E-2,-1.822295040E-1
1.726467039E1,4.112004861E-2,-6.301603466E-2,-2.022435367E-1
1.727477171E1,3.923529387E-2,-6.204868853E-2,-2.144597769E-1
1.728484251E1,3.729847446E-2,-6.315258145E-2,-2.081733495E-1
1.729488280E1,3.532284126E-2,-6.438542157E-2,-1.960294247E-1
1.730495360E1,3.428358585E-2,-6.573247164E-2,-1.712220013E-1
1.731502440E1,3.418055549E-2,-6.816127896E-2,-1.570987105E-1
1.732512571E1,3.501114994E-2,-6.875909865E-2,-1.536611915E-1
1.733522703E1,3.581087664E-2,-6.755846739E-2,-1.511722207E-1
1.734526732E1,3.364087269E-2,-6.549970061E-2,-1.438034028E-1
1.735536863E1,3.143657744E-2,-6.357634068E-2,-1.403043717E-1
1.736571409E1,2.727602609E-2,-6.179295108E-2,-1.533195227E-1
1.738558104E1,1.415493712E-2,-5.568690971E-2,-1.977710277E-1
1.739577391E1,7.213415578E-3,-5.427366495E-2,-2.009890676E-1
1.740593626E1,2.320422092E-3,-5.102060735E-2,-1.808337271E-1
1.741612913E1,-1.503546257E-3,-5.075354129E-2,-1.460712403E-1
1.742626097E1,-3.286104184E-3,-5.053344741E-2,-1.103219911E-1
1.744600584E1,-2.731094137E-3,-5.598773807E-2,-1.224709004E-1
1.745604612E1,-4.307432566E-3,-5.970613286E-2,-1.586973369E-1
1.746608641E1,-7.740628906E-3,-6.440901011E-2,-1.939444691E-1
1.747618773E1,-1.105614100E-2,-6.716380268E-2,-2.184850425E-1
1.748625853E1,-1.229070313E-2,-7.084270567E-2,-2.274608016E-1
1.749632933E1,-1.337355003E-2,-7.540727407E-2,-2.306089997E-1
1.750640013E1,-1.235409174E-2,-7.886847109E-2,-2.366892993E-1
1.751640989E1,-9.241940454E-3,-8.224498481E-2,-2.349958867E-1
1.752657225E1,-5.029745866E-3,-8.454971761E-2,-2.196929455E-1
1.753670408E1,-1.693918486E-3,-8.579680324E-2,-1.956445277E-1
1.754753782E1,3.640402341E-3,-8.603060991E-2,-1.784104258E-1
1.756722166E1,1.534762233E-2,-8.928989619E-2,-2.052554041E-1
1.758696654E1,2.995194122E-2,-9.243779629E-2,-2.350416034E-1
1.759703734E1,3.332174942E-2,-9.350802004E-2,-2.324271053E-1
1.760713865E1,3.665664047E-2,-9.355986863E-2,-2.142569423E-1
1.761717894E1,3.993650898E-2,-9.456919879E-2,-1.853926778E-1
1.762724974E1,4.512592405E-2,-9.741033614E-2,-1.565500349E-1
1.763732054E1,4.927551001E-2,-1.010830104E-1,-1.384372264E-1
1.764739134E1,5.329374596E-2,-1.036671624E-1,-1.329995692E-1
1.765743162E1,5.614153668E-2,-1.070608273E-1,-1.324658543E-1
1.766753294E1,5.679905787E-2,-1.123057231E-1,-1.387730837E-1
1.767760374E1,5.620923638E-2,-1.183109730E-1,-1.577787250E-1
1.768767454E1,5.440449342E-2,-1.222307533E-1,-1.729287058E-1
1.769774534E1,5.142940581E-2,-1.260194927E-1,-1.744949073E-1
1.770781614E1,4.732663184E-2,-1.287014335E-1,-1.702560037E-1
1.771788694E1,4.116665572E-2,-1.312509924E-1,-1.563197523E-1
1.772823240E1,3.395453840E-2,-1.336468458E-1,-1.443603784E-1
1.774809935E1,2.137807012E-2,-1.361022592E-1,-1.341451257E-1
1.775813963E1,1.606094651E-2,-1.371378750E-1,-1.378295422E-1
1.776821043E1,1.076024305E-2,-1.370518357E-1,-1.473805755E-1
1.777831175E1,5.506611895E-3,-1.388055086E-1,-1.608421355E-1
1.778835203E1,-1.623619930E-3,-1.414343566E-1,-1.762647778E-1
1.779842283E1,-7.688671350E-3,-1.439746469E-1,-1.858657002E-1
1.780849363E1,-1.462972537E-2,-1.463671923E-1,-1.896515340E-1
1.781856444E1,-2.046886459E-2,-1.457806975E-1,-1.856628656E-1
1.782863524E1,-2.426441200E-2,-1.411122084E-1,-1.710050255E-1
1.783870604E1,-2.601782233E-2,-1.344128102E-1,-1.583049446E-1
1.784880736E1,-2.671727538E-2,-1.315075606E-1,-1.436762065E-1
1.785884764E1,-2.728231251E-2,-1.305001974E-1,-1.426728070E-1
1.786891844E1,-2.666375972E-2,-1.275446564E-1,-1.533353180E-1
1.787898924E1,-2.478944510E-2,-1.236451343E-1,-1.620367467E-1
1.788912108E1,-2.259527892E-2,-1.198218986E-1,-1.707082391E-1
1.789931395E1,-2.009181120E-2,-1.151008308E-1,-1.754609048E-1
1.790965941E1,-1.926708966E-2,-1.075696945E-1,-1.762913913E-1
1.792983152E1,-1.218715124E-2,-8.899073303E-2,-1.671576649E-1
1.794951536E1,-3.702647518E-3,-6.716504693E-2,-1.539953798E-1
1.795955565E1,1.553737093E-3,-5.853012577E-2,-1.507557333E-1
1.796962645E1,6.783675402E-3,-5.208282545E-2,-1.494206339E-1
1.797972776E1,1.098386757E-2,-4.685007781E-2,-1.499867588E-1
1.798979857E1,1.412152965E-2,-4.286909476E-2,-1.514789760E-1
1.799986937E1,1.717351191E-2,-3.912254423E-2,-1.548774242E-1
1.800994017E1,2.107526176E-2,-3.372727707E-2,-1.601704210E-1
1.802004149E1,2.389738522E-2,-2.759359218E-2,-1.634790897E-1
1.803014280E1,2.757701650E-2,-2.364897728E-2,-1.667470038E-1
1.804030516E1,2.924313769E-2,-1.788689010E-2,-1.680480242E-1
1.805046751E1,3.080617636E-2,-1.038484927E-2,-1.663961858E-1
1.806062987E1,3.221198916E-2,-3.185618203E-3,-1.666397601E-1
1.807079222E1,3.246684000E-2,3.723066766E-3,-1.687804163E-1
1.809133055E1,3.345491737E-2,1.777050458E-2,-1.746994108E-1
1.811064818E1,3.476985544E-2,3.767791763E-2,-1.843585074E-1
1.812071898E1,3.593344241E-2,4.745340720E-2,-1.861633062E-1
1.813078978E1,3.697010130E-2,5.584766716E-2,-1.869214773E-1
1.814086058E1,3.889065981E-2,6.580500305E-2,-1.856661886E-1
1.815096190E1,3.973694146E-2,7.631018758E-2,-1.872498393E-1
1.816100218E1,3.858390078E-2,8.451365680E-2,-1.916899383E-1
1.817107298E1,3.736513481E-2,9.522771090E-2,-1.950808913E-1
1.818117430E1,3.610958159E-2,1.046070755E-1,-1.984045058E-1
1.819121458E1,3.385919705E-2,1.116905510E-1,-1.997171640E-1
1.820131590E1,3.354428336E-2,1.174558550E-1,-2.048588693E-1
1.821135618E1,3.420793638E-2,1.219252348E-1,-2.118835300E-1
1.822142698E1,3.488135710E-2,1.289640367E-1,-2.198193073E-1
1.823149779E1,3.654389456E-2,1.337102503E-1,-2.179604918E-1
1.824156859E1,3.628234193E-2,1.381161362E-1,-2.121462226E-1
1.825163939E1,3.507308289E-2,1.441276073E-1,-1.994602829E-1
1.826171019E1,3.486550972E-2,1.507870108E-1,-1.974185556E-1
1.827208616E1,3.564721346E-2,1.570591033E-1,-2.030873150E-1
1.829192259E1,3.630577028E-2,1.637107134E-1,-2.152187824E-1
1.830199339E1,3.714332730E-2,1.679814160E-1,-2.090337574E-1
1.831206419E1,3.604276478E-2,1.709387302E-1,-2.027922124E-1
1.832213499E1,3.495191410E-2,1.745748222E-1,-2.052587271E-1
1.833220579E1,3.192315623E-2,1.788897812E-1,-2.135154158E-1
1.834227659E1,2.890863456E-2,1.819680482E-1,-2.246501148E-1
1.835234739E1,2.688177116E-2,1.896514297E-1,-2.211502492E-1
1.836238768E1,2.390393242E-2,1.970721930E-1,-2.059370875E-1
1.837248900E1,2.095357701E-2,1.984254867E-1,-1.799882650E-1
1.838252928E1,1.900953613E-2,1.947186291E-1,-1.676331908E-1
1.839269163E1,2.002364211E-2,1.879401505E-1,-1.844441593E-1
1.840285399E1,2.302751318E-2,1.810637861E-1,-2.100022435E-1
1.841304686E1,2.801834233E-2,1.760790944E-1,-2.433423400E-1
1.842320921E1,3.012641519E-2,1.730125695E-1,-2.582005262E-1
1.843340208E1,3.032042459E-2,1.699304432E-1,-2.555536032E-1
1.845384886E1,2.106502652E-2,1.647679508E-1,-2.288881689E-1
1.847319700E1,1.774842292E-2,1.655322462E-1,-2.188134044E-1
1.848326780E1,1.904751547E-2,1.674074978E-1,-2.113622874E-1
1.849333860E1,2.231127955E-2,1.702657640E-1,-2.019758373E-1
1.850340941E1,2.850695141E-2,1.701943874E-1,-2.013556808E-1
1.851348021E1,3.471218422E-2,1.691575199E-1,-2.163094580E-1
1.852355101E1,4.091819748E-2,1.681378037E-1,-2.439250946E-1
1.853368284E1,4.614158720E-2,1.690780222E-1,-2.608524263E-1
1.854387571E1,4.939740151E-2,1.739264876E-1,-2.632009089E-1
1.855406859E1,4.873052612E-2,1.787811965E-1,-2.431843877E-1
1.856420042E1,4.510280117E-2,1.826607585E-1,-2.105326355E-1
1.857442381E1,4.510280117E-2,1.826607585E-1,-2.105326355E-1
1.859407713E1,3.682887927E-2,1.924017370E-1,-1.807655543E-1
1.860411741E1,3.979960456E-2,1.904933453E-1,-1.919534653E-1
1.861418821E1,4.368290678E-2,1.866762340E-1,-2.138620615E-1
1.862428953E1,4.750027508E-2,1.819355190E-1,-2.377384156E-1
1.863451292E1,4.833138734E-2,1.762370467E-1,-2.557905316E-1
1.865447142E1,4.690603539E-2,1.659250408E-1,-2.452568710E-1
1.866451170E1,4.272377118E-2,1.661690325E-1,-2.225028127E-1
1.867452147E1,3.851521388E-2,1.674202681E-1,-2.046294361E-1
1.868465330E1,3.526023403E-2,1.696345955E-1,-2.003855407E-1
1.869472410E1,3.199501336E-2,1.737741530E-1,-2.049037665E-1
1.870479490E1,2.969480306E-2,1.778427362E-1,-2.142868638E-1
1.871489622E1,2.836235426E-2,1.808708161E-1,-2.246434540E-1
1.872496702E1,2.800145745E-2,1.809059381E-1,-2.350000441E-1
1.873503782E1,2.668028139E-2,1.789573282E-1,-2.414677143E-1
1.874510862E1,2.538747527E-2,1.769938618E-1,-2.459967434E-1
1.875517942E1,2.607934177E-2,1.759866029E-1,-2.476128191E-1
1.876528074E1,2.585644275E-2,1.759742349E-1,-2.472927719E-1
1.877532103E1,2.375299670E-2,1.778967679E-1,-2.391948849E-1
1.878539183E1,2.269394696E-2,1.817663610E-1,-2.233208269E-1
1.879546263E1,2.268007398E-2,1.817569137E-1,-2.074534297E-1
1.880553343E1,2.371049486E-2,1.807971597E-1,-2.013249248E-1
1.881587889E1,2.480809763E-2,1.788839549E-1,-2.107703984E-1
1.883574583E1,2.912405133E-2,1.781424135E-1,-2.345694155E-1
1.884581663E1,2.940607630E-2,1.792917252E-1,-2.382164150E-1
1.885588743E1,2.875613980E-2,1.804721057E-1,-2.331204265E-1
1.886595823E1,2.911028080E-2,1.826361269E-1,-2.231678665E-1
1.887605955E1,2.948780544E-2,1.847938150E-1,-2.141970992E-1
1.888619139E1,3.084997647E-2,1.869160831E-1,-2.081492245E-1
1.889638426E1,3.222529218E-2,1.909128577E-1,-2.020997107E-1
1.890654661E1,3.166409582E-2,1.928781867E-1,-1.970228404E-1
1.891670897E1,3.110659309E-2,1.928016096E-1,-1.929161251E-1
1.893645384E1,2.803070843E-2,1.876060665E-1,-1.915236562E-1
1.894649412E1,2.745164186E-2,1.844952703E-1,-2.020265609E-1
1.895659544E1,2.782989293E-2,1.823957711E-1,-2.154656798E-1
1.896663572E1,2.721705474E-2,1.813071519E-1,-2.260018289E-1
1.897673704E1,2.658561617E-2,1.792952716E-1,-2.316897213E-1
1.898683836E1,2.398841456E-2,1.792517155E-1,-2.266901582E-1
1.899806883E1,2.040662058E-2,1.792377830E-1,-2.187868059E-1
1.901720335E1,1.810001954E-2,1.802321523E-1,-2.137157470E-1
1.903734495E1,2.067363076E-2,1.900042146E-1,-2.261980325E-1
1.904753782E1,2.100174129E-2,1.938930303E-1,-2.251538783E-1
1.905770018E1,2.426009998E-2,1.967475265E-1,-2.270310074E-1
1.906789305E1,2.656062506E-2,1.985750198E-1,-2.308567464E-1
1.908751585E1,2.731722780E-2,2.049708515E-1,-2.365712225E-1
1.909755613E1,2.868989296E-2,2.085540295E-1,-2.316489965E-1
1.910765745E1,2.715517394E-2,2.111039013E-1,-2.218660116E-1
1.911769774E1,2.562985756E-2,2.135664225E-1,-2.111112326E-1
1.912779905E1,2.606167458E-2,2.140299529E-1,-2.032793611E-1
1.913783934E1,2.747678943E-2,2.144417614E-1,-2.051822394E-1
1.914791014E1,3.084446862E-2,2.128657252E-1,-2.129276693E-1
1.915801146E1,3.616132960E-2,2.141774893E-1,-2.216556966E-1
1.916805174E1,3.758366778E-2,2.144629657E-1,-2.177401632E-1
1.917833616E1,3.705479205E-2,2.156980336E-1,-2.079979330E-1
1.919826414E1,3.401662782E-2,2.179599553E-1,-2.079862952E-1
1.920833494E1,3.149819747E-2,2.218929231E-1,-2.235544175E-1
1.921840574E1,2.895420045E-2,2.266793102E-1,-2.235602438E-1
1.922847654E1,2.833964862E-2,2.303822637E-1,-2.089738995E-1
1.923851683E1,2.866874821E-2,2.291005850E-1,-1.866080761E-1
1.924861815E1,2.896890603E-2,2.238243520E-1,-1.856503785E-1
1.925868895E1,2.923513576E-2,2.165357322E-1,-1.973503977E-1
1.926875975E1,3.141423315E-2,2.121424377E-1,-2.217097133E-1
1.927883055E1,3.355872631E-2,2.077444345E-1,-2.392738611E-1
1.928890135E1,3.469919413E-2,2.043733448E-1,-2.442102432E-1
1.929897215E1,3.289455548E-2,1.981516778E-1,-2.384649962E-1
1.930907347E1,2.912815474E-2,1.939691603E-1,-2.298217565E-1
1.931911375E1,2.632712573E-2,1.898879409E-1,-2.163352519E-1
1.932921507E1,2.547102235E-2,1.859221756E-1,-2.155188918E-1
1.933928587E1,2.754054032E-2,1.830451936E-1,-2.225044668E-1
1.934935667E1,2.962081693E-2,1.832205057E-1,-2.285406739E-1
1.935970213E1,3.073800728E-2,1.825401485E-1,-2.287584990E-1
1.937969114E1,3.299431130E-2,1.824874282E-1,-2.273061723E-1
1.938985350E1,3.413265198E-2,1.821122915E-1,-2.421726584E-1
1.940004637E1,3.430727869E-2,1.837733835E-1,-2.463533878E-1
1.941020872E1,3.351923823E-2,1.883991510E-1,-2.408168018E-1
1.942992308E1,2.906892262E-2,1.958610713E-1,-2.113015950E-1
1.943999388E1,2.638885193E-2,1.986604929E-1,-2.048289478E-1
1.945006468E1,2.470334992E-2,2.014858425E-1,-2.032319754E-1
1.946013548E1,2.498428524E-2,2.014288008E-1,-2.055372298E-1
1.947020628E1,2.624804713E-2,1.994782537E-1,-2.068823129E-1
1.948030760E1,2.655007504E-2,1.946658194E-1,-2.199140787E-1
1.949034788E1,2.783467248E-2,1.870250553E-1,-2.310163528E-1
1.950041868E1,2.815977111E-2,1.804523915E-1,-2.411584705E-1
1.951055052E1,2.557888627E-2,1.749573052E-1,-2.347772419E-1
1.952071287E1,2.203683928E-2,1.695488095E-1,-2.167359442E-1
1.953087523E1,1.850788668E-2,1.661908776E-1,-2.016275227E-1
1.954177000E1,1.597246341E-2,1.648616195E-1,-2.030690312E-1
1.956139280E1,1.487558801E-2,1.623736918E-1,-2.215509415E-1
1.958098509E1,2.070267498E-2,1.590671986E-1,-2.303396612E-1
1.959105589E1,2.121767774E-2,1.560157537E-1,-2.201526612E-1
1.960112669E1,1.883630827E-2,1.510799229E-1,-2.109516114E-1
1.961119749E1,1.453376096E-2,1.471951008E-1,-2.095408738E-1
1.962126829E1,1.220616791E-2,1.453681886E-1,-2.169005573E-1
1.963133909E1,1.185446884E-2,1.455816329E-1,-2.223232538E-1
1.964140989E1,1.445213519E-2,1.468670666E-1,-2.180286348E-1
1.965148070E1,1.513199974E-2,1.492181271E-1,-2.059612125E-1
1.966155150E1,1.486758795E-2,1.487700194E-1,-1.909858137E-1
1.967165281E1,1.560278609E-2,1.484418362E-1,-1.945064366E-1
1.968169310E1,1.830509491E-2,1.472596973E-1,-2.019301355E-1
1.969176390E1,2.199994959E-2,1.462239176E-1,-2.122825682E-1
1.970186522E1,2.376676351E-2,1.443723887E-1,-2.119466960E-1
1.971190550E1,2.457439154E-2,1.455670446E-1,-2.057841122E-1
1.972228148E1,2.539147623E-2,1.468686312E-1,-1.986588836E-1
1.974211790E1,2.217416279E-2,1.487255991E-1,-1.922178268E-1
1.975218870E1,2.202093974E-2,1.501769871E-1,-2.035994232E-1
1.976225950E1,2.575065754E-2,1.526026577E-1,-2.140158564E-1
1.977233030E1,2.945886366E-2,1.521057636E-1,-2.166544795E-1
1.978240110E1,3.021437861E-2,1.477305293E-1,-2.095716298E-1
1.979247191E1,3.092640452E-2,1.424024701E-1,-2.083370984E-1
1.980251219E1,2.866729163E-2,1.361601651E-1,-2.080852240E-1
1.981261351E1,2.829953656E-2,1.309489012E-1,-2.127090245E-1
1.982268431E1,2.788491547E-2,1.277542710E-1,-2.202607542E-1
1.983275511E1,2.840480208E-2,1.236846521E-1,-2.210147381E-1
1.984282591E1,2.888572216E-2,1.196840927E-1,-2.208052576E-1
1.985289671E1,3.030296788E-2,1.157681346E-1,-2.176878005E-1
1.986296751E1,2.973345853E-2,1.099866033E-1,-2.165247798E-1
1.987316038E1,2.912654355E-2,1.043027639E-1,-2.182913423E-1
1.988332274E1,2.751741931E-2,9.875372797E-2,-2.210405171E-1
1.989351561E1,2.685979381E-2,9.336855263E-2,-2.208825648E-1
1.990383055E1,2.715615928E-2,8.911076933E-2,-2.178158164E-1
1.992339232E1,2.772140503E-2,8.022516221E-2,-2.039319575E-1
1.993346312E1,2.605367452E-2,7.266125828E-2,-2.018677890E-1
1.994353392E1,2.536528930E-2,6.626513600E-2,-2.037025094E-1
1.995360472E1,2.565999329E-2,5.814016238E-2,-2.094377726E-1
1.996367552E1,2.693679556E-2,5.026448146E-2,-2.054532617E-1
1.997374632E1,2.433481440E-2,4.169480503E-2,-1.985591203E-1
1.998384764E1,2.077260986E-2,3.146988153E-2,-1.965381801E-1
1.999388792E1,1.625350118E-2,2.059410885E-2,-2.062014490E-1
2.000401976E1,1.625350118E-2,2.059410885E-2,-2.062014490E-1
2.001418211E1,1.120910421E-2,-1.033772482E-3,-2.313912660E-1
2.002437498E1,9.743746370E-3,-1.177463494E-2,-2.216207683E-1
2.003453734E1,7.365183905E-3,-2.509698085E-2,-2.050450891E-1
2.004469969E1,4.068272188E-3,-4.106586054E-2,-1.787437797E-1
2.006438353E1,-3.359208582E-3,-7.862681895E-2,-1.952380091E-1
2.007445433E1,-4.589250311E-3,-9.699390084E-2,-2.195566148E-1
2.008479979E1,-6.732705049E-3,-1.136552393E-1,-2.468064427E-1
2.010466673E1,-5.892136134E-3,-1.420582086E-1,-2.488016188E-1
2.011470701E1,-6.785130594E-3,-1.558042169E-1,-2.284101695E-1
2.012480833E1,-7.577170152E-3,-1.708830893E-1,-2.128910869E-1
2.013487913E1,-6.330346223E-3,-1.843992174E-1,-2.090553641E-1
2.014494993E1,-5.967163481E-3,-1.943799704E-1,-2.091227174E-1
2.015502073E1,-5.522978492E-3,-2.027722001E-1,-1.994727403E-1
2.016506102E1,-5.982386880E-3,-2.105697840E-1,-1.839977205E-1
2.017516234E1,-7.354532368E-3,-2.158221602E-1,-1.792400777E-1
2.018523314E1,-8.672850206E-3,-2.195234150E-1,-1.959005594E-1
2.019530394E1,-7.995376363E-3,-2.207152247E-1,-2.213339657E-1
2.020537474E1,-5.328242201E-3,-2.204144001E-1,-2.399730086E-1
2.021544554E1,-4.570961464E-3,-2.206232250E-1,-2.450074703E-1
2.022551634E1,-3.779232735E-3,-2.213770300E-1,-2.276827693E-1
2.023558714E1,-5.875874311E-3,-2.246535420E-1,-2.123207897E-1
2.024565794E1,-6.972436793E-3,-2.304536849E-1,-2.096248269E-1
2.025572874E1,-9.989297017E-3,-2.358724624E-1,-1.991634965E-1
2.026607420E1,-1.395121310E-2,-2.457881272E-1,-1.877494752E-1
2.028594114E1,-1.693118364E-2,-2.664238513E-1,-2.107105255E-1
2.029601194E1,-1.595381089E-2,-2.781282961E-1,-2.304951102E-1
2.030608275E1,-1.592991129E-2,-2.914206684E-1,-2.522490919E-1
2.031615355E1,-1.783462055E-2,-3.043669164E-1,-2.526257038E-1
2.032622435E1,-2.069623210E-2,-3.159914017E-1,-2.364881039E-1
2.033629515E1,-2.451323718E-2,-3.263134658E-1,-2.184326649E-1
2.034639647E1,-3.025890701E-2,-3.363037407E-1,-1.974859089E-1
2.035655882E1,-3.499956056E-2,-3.459645510E-1,-1.882424504E-1
2.036672117E1,-3.871743008E-2,-3.533776104E-1,-1.858365983E-1
2.037691405E1,-4.041815549E-2,-3.575959802E-1,-1.873504370E-1
2.038704588E1,-4.203538597E-2,-3.605826795E-1,-1.898593754E-1
2.040679075E1,-4.302351549E-2,-3.619467914E-1,-1.735521853E-1
2.041683104E1,-4.336186126E-2,-3.613305092E-1,-1.732205003E-1
2.042693236E1,-4.457511753E-2,-3.624545634E-1,-1.826426834E-1
2.043700316E1,-4.666443542E-2,-3.653049171E-1,-1.901469976E-1
2.044808104E1,-4.962918535E-2,-3.659733236E-1,-1.830882579E-1
2.046721556E1,-5.332512781E-2,-3.694427609E-1,-1.486400217E-1
2.047728636E1,-5.407419801E-2,-3.712616265E-1,-1.387672573E-1
2.048735716E1,-5.377388373E-2,-3.718433380E-1,-1.464428455E-1
2.049755003E1,-5.048460886E-2,-3.712214530E-1,-1.599941850E-1
2.050771238E1,-4.714067653E-2,-3.703861237E-1,-1.667744368E-1
2.051787474E1,-4.472356290E-2,-3.713060021E-1,-1.716468036E-1
2.052806761E1,-4.421947151E-2,-3.720671237E-1,-1.658558249E-1
2.054778196E1,-4.801023751E-2,-3.722556233E-1,-1.466024667E-1
2.055785276E1,-4.939371347E-2,-3.678783774E-1,-1.341068894E-1
2.056789305E1,-4.978240281E-2,-3.606020212E-1,-1.274762750E-1
2.057799437E1,-5.209347233E-2,-3.543691337E-1,-1.247611865E-1
2.058806517E1,-5.339578912E-2,-3.472739756E-1,-1.269301027E-1
2.059813597E1,-5.564461276E-2,-3.403415382E-1,-1.281413287E-1
2.060820677E1,-5.495524406E-2,-3.365063965E-1,-1.332564503E-1
2.061827757E1,-5.424861982E-2,-3.328523338E-1,-1.413027942E-1
2.062859251E1,-5.158595368E-2,-3.293709755E-1,-1.483889669E-1
2.064848997E1,-4.334253073E-2,-3.267551064E-1,-1.528739333E-1
2.065856077E1,-4.167339951E-2,-3.256227374E-1,-1.483315974E-1
2.066860106E1,-4.003169760E-2,-3.236218691E-1,-1.428332478E-1
2.067870238E1,-3.842823580E-2,-3.207639158E-1,-1.392984837E-1
2.068874266E1,-3.687813506E-2,-3.180239797E-1,-1.396717429E-1
2.069881346E1,-3.539272398E-2,-3.154120743E-1,-1.429803967E-1
2.070891478E1,-3.495030478E-2,-3.139143288E-1,-1.482476294E-1
2.071895506E1,-3.359971941E-2,-3.106171191E-1,-1.525555402E-1
2.072908690E1,-2.940410189E-2,-3.065082133E-1,-1.607664824E-1
2.073909666E1,-2.527914383E-2,-3.035449684E-1,-1.670396328E-1
2.074919798E1,-2.121492289E-2,-2.978397310E-1,-1.645647883E-1
2.075926878E1,-1.915392466E-2,-2.913577259E-1,-1.543096155E-1
2.076933958E1,-1.812288165E-2,-2.860541046E-1,-1.430851370E-1
2.077941038E1,-1.520432346E-2,-2.790374458E-1,-1.338034570E-1
2.078945067E1,-1.332689170E-2,-2.713004649E-1,-1.323004365E-1
2.079955198E1,-1.249489654E-2,-2.628469765E-1,-1.356564611E-1
2.080986692E1,-1.271233801E-2,-2.536926866E-1,-1.370580643E-1
2.082976439E1,-8.542644791E-3,-2.371497303E-1,-1.378894001E-1
2.083983519E1,-7.086795755E-3,-2.297574133E-1,-1.451019347E-1
2.084999754E1,-6.703089457E-3,-2.226180434E-1,-1.600873023E-1
2.086019041E1,-5.442963913E-3,-2.147609293E-1,-1.721422672E-1
2.087035276E1,-3.305276623E-3,-2.071787715E-1,-1.695909500E-1
2.088054564E1,-2.233601175E-3,-2.018191516E-1,-1.582667083E-1
2.090025999E1,-2.301717410E-3,-1.900661439E-1,-9.177856147E-2
2.091033079E1,1.432312536E-3,-1.885265559E-1,-7.747320831E-2
2.092040159E1,5.083989818E-3,-1.911498755E-1,-8.941677958E-2
2.093047239E1,9.629335254E-3,-1.940369457E-1,-1.169060394E-1
2.094054320E1,1.215852331E-2,-1.990910619E-1,-1.463256329E-1
2.095061400E1,1.267700735E-2,-2.062845826E-1,-1.698968709E-1
2.096068480E1,1.216865517E-2,-2.136280537E-1,-1.827565730E-1
2.097075560E1,1.356371399E-2,-2.191580832E-1,-1.926925033E-1
2.098085692E1,1.394528989E-2,-2.237920761E-1,-1.958190948E-1
2.099172117E1,1.233751606E-2,-2.265437394E-1,-1.843535304E-1
2.101131346E1,1.190211251E-2,-2.320958227E-1,-1.264238209E-1
2.102147581E1,1.307136472E-2,-2.358544171E-1,-1.091481596E-1
2.104125120E1,1.818538457E-2,-2.404742837E-1,-1.456472725E-1
2.105129149E1,2.212875150E-2,-2.422459275E-1,-1.760810614E-1
2.106136229E1,2.504892088E-2,-2.391086370E-1,-1.909641922E-1
2.107143309E1,2.305879071E-2,-2.349642068E-1,-2.029468268E-1
2.108153441E1,2.004925720E-2,-2.327252328E-1,-1.886780560E-1
2.109157469E1,1.699903980E-2,-2.323748320E-1,-1.578876227E-1
2.110167601E1,1.293481980E-2,-2.300160676E-1,-1.251726896E-1
2.111171629E1,9.809316136E-3,-2.304816097E-1,-1.002646759E-1
2.112181761E1,8.603902534E-3,-2.308511287E-1,-8.802847564E-2
2.113185789E1,9.325436316E-3,-2.320788950E-1,-8.846658468E-2
2.114192869E1,1.197823044E-2,-2.351462543E-1,-9.379617870E-2
2.115203001E1,1.559551153E-2,-2.390573919E-1,-1.108290851E-1
2.116207030E1,1.823739521E-2,-2.418643534E-1,-1.376208663E-1
2.117238524E1,1.990865916E-2,-2.435877919E-1,-1.508189142E-1
2.119231321E1,1.353394147E-2,-2.467591614E-1,-1.500491202E-1
2.120238402E1,8.411452174E-3,-2.472560853E-1,-1.341309994E-1
2.121245482E1,3.300028620E-3,-2.477177680E-1,-1.230935603E-1
2.122252562E1,1.121866400E-3,-2.462078929E-1,-1.217991933E-1
2.123259642E1,2.847375115E-3,-2.427737117E-1,-1.321873665E-1
2.124266722E1,5.558413453E-3,-2.393797487E-1,-1.464702785E-1
2.125273802E1,7.314525079E-3,-2.350722700E-1,-1.549164951E-1
2.126280882E1,9.093497880E-3,-2.327974588E-1,-1.623867303E-1
2.127287962E1,1.089730673E-2,-2.335264236E-1,-1.737425625E-1
2.128291990E1,1.077723317E-2,-2.343381047E-1,-1.889873147E-1
2.129302122E1,8.730522357E-3,-2.352093160E-1,-2.003398091E-1
2.130309202E1,5.724521354E-3,-2.341611385E-1,-1.980761141E-1
2.131313231E1,3.703115042E-3,-2.321769893E-1,-1.802509725E-1
2.132323362E1,2.668537432E-3,-2.302141339E-1,-1.653487235E-1
2.133333494E1,3.594367998E-3,-2.292482406E-1,-1.523984224E-1
2.134346678E1,7.459694054E-3,-2.273431718E-1,-1.491812021E-1
2.135381224E1,1.134637557E-2,-2.225678563E-1,-1.556921154E-1
2.136385252E1,1.525269635E-2,-2.178561538E-1,-1.602568775E-1
2.137401488E1,1.819723099E-2,-2.122784108E-1,-1.657826751E-1
2.139372923E1,1.728267595E-2,-2.043549865E-1,-1.544351578E-1
2.140380003E1,1.731421426E-2,-1.981621683E-1,-1.482509673E-1
2.141384031E1,1.735157147E-2,-1.921273172E-1,-1.508072764E-1
2.142394163E1,1.836500317E-2,-1.843338907E-1,-1.533353180E-1
2.143401243E1,2.229735255E-2,-1.767622381E-1,-1.499959081E-1
2.144411375E1,2.427984402E-2,-1.684727222E-1,-1.368901432E-1
2.145415404E1,2.624679916E-2,-1.623686403E-1,-1.295861602E-1
2.146422484E1,2.720853314E-2,-1.555468291E-1,-1.212704778E-1
2.147435667E1,2.617104538E-2,-1.509392411E-1,-1.187532321E-1
2.148451902E1,2.506170049E-2,-1.465442628E-1,-1.171795428E-1
2.149471190E1,2.289522998E-2,-1.423402727E-1,-1.194714978E-1
2.150487425E1,2.356070094E-2,-1.373962015E-1,-1.256216019E-1
2.151503660E1,2.511724457E-2,-1.306847632E-1,-1.317500919E-1
2.153554442E1,2.510820143E-2,-1.179555878E-1,-1.507091671E-1
2.155486204E1,2.584984526E-2,-1.032923460E-1,-1.714564264E-1
2.156490233E1,2.323102951E-2,-9.782537818E-2,-1.754401177E-1
2.157500364E1,1.960226707E-2,-9.168732911E-2,-1.764535010E-1
2.158510496E1,1.595059037E-2,-8.585561812E-2,-1.754650474E-1
2.159514525E1,1.229865290E-2,-8.131473511E-2,-1.744209230E-1
2.160521605E1,8.671967313E-3,-7.708207518E-2,-1.752638817E-1
2.161528685E1,7.039150223E-3,-7.315158844E-2,-1.779939234E-1
2.162535765E1,7.407736965E-3,-7.143179327E-2,-1.835920364E-1
2.163542845E1,8.803055622E-3,-6.898896396E-2,-1.891386062E-1
2.164549925E1,1.122656092E-2,-6.490780413E-2,-1.946261525E-1
2.165557005E1,1.174161583E-2,-6.106669083E-2,-1.952030808E-1
2.166564085E1,9.375679307E-3,-5.939885601E-2,-1.957326531E-1
2.167571165E1,7.056815550E-3,-5.992072076E-2,-1.971874386E-1
2.168578245E1,6.721897982E-3,-6.254789233E-2,-2.005551159E-1
2.169585325E1,6.442522164E-3,-6.446076185E-2,-1.990080327E-1
2.170592405E1,7.180058863E-3,-6.363318115E-2,-1.925578266E-1
2.171630003E1,9.899202734E-3,-6.199111789E-2,-1.851050556E-1
2.173613646E1,1.252659038E-2,-5.914613232E-2,-1.652406454E-1
2.174620726E1,1.437819935E-2,-5.695518851E-2,-1.625646353E-1
2.175630858E1,1.819946617E-2,-5.290354788E-2,-1.676523089E-1
2.176634886E1,2.105868794E-2,-4.886415973E-2,-1.727383286E-1
2.177641966E1,2.295186184E-2,-4.494718835E-2,-1.700157523E-1
2.178649046E1,2.193022333E-2,-4.115512222E-2,-1.633793265E-1
2.179656126E1,2.090868540E-2,-3.643052280E-2,-1.625712812E-1
2.180663206E1,2.183347754E-2,-3.374203295E-2,-1.695286036E-1
2.181667234E1,2.371787280E-2,-2.919720486E-2,-1.842520982E-1
2.182680418E1,2.361982875E-2,-2.083724551E-2,-1.882615685E-1
2.183699705E1,2.346442267E-2,-1.059517357E-2,-1.786407083E-1
2.184718992E1,2.323762886E-2,-4.270906793E-4,-1.563629955E-1
2.185735228E1,2.098984271E-2,2.818798414E-3,-1.379567236E-1
2.186751463E1,1.771833934E-2,2.967812587E-3,-1.409228742E-1
2.188716795E1,1.533962134E-2,3.722859081E-3,-1.642522216E-1
2.189806273E1,1.781757735E-2,4.313719459E-3,-1.914421916E-1
2.191741087E1,1.800072938E-2,5.176422186E-3,-2.389429957E-1
2.192745115E1,1.656623371E-2,6.264412310E-3,-2.456101775E-1
2.193755247E1,1.613374054E-2,7.286520209E-3,-2.483709902E-1
2.194763226E1,1.664063707E-2,1.103244815E-2,-2.452585250E-1
2.195767254E1,1.712799817E-2,1.651063934E-2,-2.294593006E-1
2.196783489E1,1.762845181E-2,1.988122612E-2,-2.058423162E-1
2.197805828E1,1.813618280E-2,2.209440805E-2,-1.860835254E-1
2.198822063E1,2.060011029E-2,2.415421233E-2,-1.828322113E-1
2.199838299E1,2.403528243E-2,2.698693611E-2,-1.999740452E-1
2.201812786E1,2.995422669E-2,3.794269264E-2,-2.429083884E-1
2.202819866E1,3.437477350E-2,4.794285074E-2,-2.453383356E-1
